cue_frequency,cue_frequency_range,choice_frequency,choice_frequency_range,thisN,thisTrialN,thisRepN,.thisRepN,.thisTrialN,.thisN,.thisIndex,thisN,thisTrialN,thisRepN,audio_onset,audio_offset,display_feedback,response_time,response,runid,ttl,monitor,responseType,eyetracker,screen_resolution,monitor_width,full_screen,ttl_code,sound_fs,mmb_port_code,pport_port_code,ttl_port,outputDir,date,psychopy_version,
400,0.5,480,0.5,0,0,1,1,0,0,7,0,0,1,18.729381197001203,24.129833621002035,24.129833621002035,24.12579634100257,diff,chase80coh_0.5oct,None,debugging_monitor,mouse,None,"[800, 800]",32,False,255,44100,None,DFF8,NaN,/Users/chase/Desktop/NKI/Task_TaxonomyAuditoryMemory/logs/chase80coh_0.5oct,2023-07-24_15h45.32.573,2022.1.4,
400,0.5,440,0.5,1,1,1,1,1,1,6,1,1,1,30.71308004900129,37.992173224,37.992173224,37.97927207900284,diff,chase80coh_0.5oct,None,debugging_monitor,mouse,None,"[800, 800]",32,False,255,44100,None,DFF8,NaN,/Users/chase/Desktop/NKI/Task_TaxonomyAuditoryMemory/logs/chase80coh_0.5oct,2023-07-24_15h45.32.573,2022.1.4,
400,0.5,400,0.5,2,2,1,1,2,2,1,2,2,1,45.579183649002516,51.64557722000245,51.64557722000245,51.642148498001916,same,chase80coh_0.5oct,None,debugging_monitor,mouse,None,"[800, 800]",32,False,255,44100,None,DFF8,NaN,/Users/chase/Desktop/NKI/Task_TaxonomyAuditoryMemory/logs/chase80coh_0.5oct,2023-07-24_15h45.32.573,2022.1.4,
400,0.5,400,0.5,3,3,1,1,3,3,2,3,3,1,57.72901421400093,62.861677029999555,62.861677029999555,62.858771859002445,same,chase80coh_0.5oct,None,debugging_monitor,mouse,None,"[800, 800]",32,False,255,44100,None,DFF8,NaN,/Users/chase/Desktop/NKI/Task_TaxonomyAuditoryMemory/logs/chase80coh_0.5oct,2023-07-24_15h45.32.573,2022.1.4,
400,0.5,400,0.5,4,4,1,1,4,4,3,4,4,1,69.84624510300273,75.64506722400256,75.64506722400256,75.64198926100289,same,chase80coh_0.5oct,None,debugging_monitor,mouse,None,"[800, 800]",32,False,255,44100,None,DFF8,NaN,/Users/chase/Desktop/NKI/Task_TaxonomyAuditoryMemory/logs/chase80coh_0.5oct,2023-07-24_15h45.32.573,2022.1.4,
400,0.5,400,0.5,5,5,1,1,5,5,0,5,5,1,82.3287970090023,88.31149853300303,88.31149853300303,88.30851550200168,same,chase80coh_0.5oct,None,debugging_monitor,mouse,None,"[800, 800]",32,False,255,44100,None,DFF8,NaN,/Users/chase/Desktop/NKI/Task_TaxonomyAuditoryMemory/logs/chase80coh_0.5oct,2023-07-24_15h45.32.573,2022.1.4,
400,0.5,410,0.5,6,6,1,1,6,6,4,6,6,1,94.46188093800083,100.71116104199973,100.71116104199973,100.7083399639996,diff,chase80coh_0.5oct,None,debugging_monitor,mouse,None,"[800, 800]",32,False,255,44100,None,DFF8,NaN,/Users/chase/Desktop/NKI/Task_TaxonomyAuditoryMemory/logs/chase80coh_0.5oct,2023-07-24_15h45.32.573,2022.1.4,
400,0.5,420,0.5,7,7,1,1,7,7,5,7,7,1,107.42644320600084,113.25818382600119,113.25818382600119,113.24511549500312,diff,chase80coh_0.5oct,None,debugging_monitor,mouse,None,"[800, 800]",32,False,255,44100,None,DFF8,NaN,/Users/chase/Desktop/NKI/Task_TaxonomyAuditoryMemory/logs/chase80coh_0.5oct,2023-07-24_15h45.32.573,2022.1.4,
400,0.5,400,0.5,8,0,2,2,0,8,0,8,0,2,119.92700812800103,126.39427047400022,126.39427047400022,126.39132030100154,same,chase80coh_0.5oct,None,debugging_monitor,mouse,None,"[800, 800]",32,False,255,44100,None,DFF8,NaN,/Users/chase/Desktop/NKI/Task_TaxonomyAuditoryMemory/logs/chase80coh_0.5oct,2023-07-24_15h45.32.573,2022.1.4,
400,0.5,480,0.5,9,1,2,2,1,9,7,9,1,2,133.96200974900057,139.67443314699995,139.67443314699995,139.6616857850022,diff,chase80coh_0.5oct,None,debugging_monitor,mouse,None,"[800, 800]",32,False,255,44100,None,DFF8,NaN,/Users/chase/Desktop/NKI/Task_TaxonomyAuditoryMemory/logs/chase80coh_0.5oct,2023-07-24_15h45.32.573,2022.1.4,
400,0.5,400,0.5,10,2,2,2,2,10,3,10,2,2,146.6600854740027,153.1943100640019,153.1943100640019,153.19099519800147,same,chase80coh_0.5oct,None,debugging_monitor,mouse,None,"[800, 800]",32,False,255,44100,None,DFF8,NaN,/Users/chase/Desktop/NKI/Task_TaxonomyAuditoryMemory/logs/chase80coh_0.5oct,2023-07-24_15h45.32.573,2022.1.4,
400,0.5,410,0.5,11,3,2,2,3,11,4,11,3,2,160.62647976300286,166.07795819700186,166.07795819700186,166.07418029499968,same,chase80coh_0.5oct,None,debugging_monitor,mouse,None,"[800, 800]",32,False,255,44100,None,DFF8,NaN,/Users/chase/Desktop/NKI/Task_TaxonomyAuditoryMemory/logs/chase80coh_0.5oct,2023-07-24_15h45.32.573,2022.1.4,
400,0.5,420,0.5,12,4,2,2,4,12,5,12,4,2,172.49241925500246,178.01021638699967,178.01021638699967,178.00734646800265,diff,chase80coh_0.5oct,None,debugging_monitor,mouse,None,"[800, 800]",32,False,255,44100,None,DFF8,NaN,/Users/chase/Desktop/NKI/Task_TaxonomyAuditoryMemory/logs/chase80coh_0.5oct,2023-07-24_15h45.32.573,2022.1.4,
400,0.5,400,0.5,13,5,2,2,5,13,2,13,5,2,185.24286453800232,191.29342199700113,191.29342199700113,191.2904414930017,same,chase80coh_0.5oct,None,debugging_monitor,mouse,None,"[800, 800]",32,False,255,44100,None,DFF8,NaN,/Users/chase/Desktop/NKI/Task_TaxonomyAuditoryMemory/logs/chase80coh_0.5oct,2023-07-24_15h45.32.573,2022.1.4,
400,0.5,440,0.5,14,6,2,2,6,14,6,14,6,2,198.8926484600015,204.2599994200027,204.2599994200027,204.2569831610017,diff,chase80coh_0.5oct,None,debugging_monitor,mouse,None,"[800, 800]",32,False,255,44100,None,DFF8,NaN,/Users/chase/Desktop/NKI/Task_TaxonomyAuditoryMemory/logs/chase80coh_0.5oct,2023-07-24_15h45.32.573,2022.1.4,
400,0.5,400,0.5,15,7,2,2,7,15,1,15,7,2,211.77795896800308,217.12651091800217,217.12651091800217,217.1235739420008,same,chase80coh_0.5oct,None,debugging_monitor,mouse,None,"[800, 800]",32,False,255,44100,None,DFF8,NaN,/Users/chase/Desktop/NKI/Task_TaxonomyAuditoryMemory/logs/chase80coh_0.5oct,2023-07-24_15h45.32.573,2022.1.4,
400,0.5,440,0.5,16,0,3,3,0,16,6,16,0,3,224.44024061600066,229.9763232050027,229.9763232050027,229.97338113800288,diff,chase80coh_0.5oct,None,debugging_monitor,mouse,None,"[800, 800]",32,False,255,44100,None,DFF8,NaN,/Users/chase/Desktop/NKI/Task_TaxonomyAuditoryMemory/logs/chase80coh_0.5oct,2023-07-24_15h45.32.573,2022.1.4,
400,0.5,400,0.5,17,1,3,3,1,17,3,17,1,3,237.04355179300182,243.19297808299962,243.19297808299962,243.189958414001,same,chase80coh_0.5oct,None,debugging_monitor,mouse,None,"[800, 800]",32,False,255,44100,None,DFF8,NaN,/Users/chase/Desktop/NKI/Task_TaxonomyAuditoryMemory/logs/chase80coh_0.5oct,2023-07-24_15h45.32.573,2022.1.4,
400,0.5,420,0.5,18,2,3,3,2,18,5,18,2,3,249.72747152100055,255.24301129800006,255.24301129800006,255.23986429500292,diff,chase80coh_0.5oct,None,debugging_monitor,mouse,None,"[800, 800]",32,False,255,44100,None,DFF8,NaN,/Users/chase/Desktop/NKI/Task_TaxonomyAuditoryMemory/logs/chase80coh_0.5oct,2023-07-24_15h45.32.573,2022.1.4,
400,0.5,410,0.5,19,3,3,3,3,19,4,19,3,3,262.59203823700227,268.2758410560018,268.2758410560018,268.2729726710022,same,chase80coh_0.5oct,None,debugging_monitor,mouse,None,"[800, 800]",32,False,255,44100,None,DFF8,NaN,/Users/chase/Desktop/NKI/Task_TaxonomyAuditoryMemory/logs/chase80coh_0.5oct,2023-07-24_15h45.32.573,2022.1.4,
400,0.5,400,0.5,20,4,3,3,4,20,1,20,4,3,275.4171632450016,281.47577940700285,281.47577940700285,281.47279623400027,same,chase80coh_0.5oct,None,debugging_monitor,mouse,None,"[800, 800]",32,False,255,44100,None,DFF8,NaN,/Users/chase/Desktop/NKI/Task_TaxonomyAuditoryMemory/logs/chase80coh_0.5oct,2023-07-24_15h45.32.573,2022.1.4,
400,0.5,400,0.5,21,5,3,3,5,21,2,21,5,3,289.32502955400196,294.77269195700137,294.77269195700137,294.7600199240005,same,chase80coh_0.5oct,None,debugging_monitor,mouse,None,"[800, 800]",32,False,255,44100,None,DFF8,NaN,/Users/chase/Desktop/NKI/Task_TaxonomyAuditoryMemory/logs/chase80coh_0.5oct,2023-07-24_15h45.32.573,2022.1.4,
400,0.5,480,0.5,22,6,3,3,6,22,7,22,6,3,301.89303192100124,306.94266006399994,306.94266006399994,306.93925102900175,diff,chase80coh_0.5oct,None,debugging_monitor,mouse,None,"[800, 800]",32,False,255,44100,None,DFF8,NaN,/Users/chase/Desktop/NKI/Task_TaxonomyAuditoryMemory/logs/chase80coh_0.5oct,2023-07-24_15h45.32.573,2022.1.4,
400,0.5,400,0.5,23,7,3,3,7,23,0,23,7,3,314.7428777290006,319.72247994899953,319.72247994899953,319.7094626310027,same,chase80coh_0.5oct,None,debugging_monitor,mouse,None,"[800, 800]",32,False,255,44100,None,DFF8,NaN,/Users/chase/Desktop/NKI/Task_TaxonomyAuditoryMemory/logs/chase80coh_0.5oct,2023-07-24_15h45.32.573,2022.1.4,
400,0.5,400,0.5,24,0,4,4,0,24,1,24,0,4,326.8428774109998,331.90885936700215,331.90885936700215,331.90579432199956,same,chase80coh_0.5oct,None,debugging_monitor,mouse,None,"[800, 800]",32,False,255,44100,None,DFF8,NaN,/Users/chase/Desktop/NKI/Task_TaxonomyAuditoryMemory/logs/chase80coh_0.5oct,2023-07-24_15h45.32.573,2022.1.4,
400,0.5,480,0.5,25,1,4,4,1,25,7,25,1,4,338.5075605530001,344.29171246400074,344.29171246400074,344.2889465650005,diff,chase80coh_0.5oct,None,debugging_monitor,mouse,None,"[800, 800]",32,False,255,44100,None,DFF8,NaN,/Users/chase/Desktop/NKI/Task_TaxonomyAuditoryMemory/logs/chase80coh_0.5oct,2023-07-24_15h45.32.573,2022.1.4,
400,0.5,400,0.5,26,2,4,4,2,26,0,26,2,4,351.1245488750028,358.5585903020001,358.5585903020001,358.55563985400295,same,chase80coh_0.5oct,None,debugging_monitor,mouse,None,"[800, 800]",32,False,255,44100,None,DFF8,NaN,/Users/chase/Desktop/NKI/Task_TaxonomyAuditoryMemory/logs/chase80coh_0.5oct,2023-07-24_15h45.32.573,2022.1.4,
400,0.5,400,0.5,27,3,4,4,3,27,2,27,3,4,364.9596369880019,371.19171325200296,371.19171325200296,371.18872709300194,same,chase80coh_0.5oct,None,debugging_monitor,mouse,None,"[800, 800]",32,False,255,44100,None,DFF8,NaN,/Users/chase/Desktop/NKI/Task_TaxonomyAuditoryMemory/logs/chase80coh_0.5oct,2023-07-24_15h45.32.573,2022.1.4,
400,0.5,440,0.5,28,4,4,4,4,28,6,28,4,4,378.5741904530005,383.60838818400225,383.60838818400225,383.6052920830007,diff,chase80coh_0.5oct,None,debugging_monitor,mouse,None,"[800, 800]",32,False,255,44100,None,DFF8,NaN,/Users/chase/Desktop/NKI/Task_TaxonomyAuditoryMemory/logs/chase80coh_0.5oct,2023-07-24_15h45.32.573,2022.1.4,
400,0.5,420,0.5,29,5,4,4,5,29,5,29,5,4,391.47539550700094,396.8254585800023,396.8254585800023,396.821870658001,diff,chase80coh_0.5oct,None,debugging_monitor,mouse,None,"[800, 800]",32,False,255,44100,None,DFF8,NaN,/Users/chase/Desktop/NKI/Task_TaxonomyAuditoryMemory/logs/chase80coh_0.5oct,2023-07-24_15h45.32.573,2022.1.4,
400,0.5,410,0.5,30,6,4,4,6,30,4,30,6,4,402.9733964469997,409.47526826600006,409.47526826600006,409.4717894230016,same,chase80coh_0.5oct,None,debugging_monitor,mouse,None,"[800, 800]",32,False,255,44100,None,DFF8,NaN,/Users/chase/Desktop/NKI/Task_TaxonomyAuditoryMemory/logs/chase80coh_0.5oct,2023-07-24_15h45.32.573,2022.1.4,
400,0.5,400,0.5,31,7,4,4,7,31,3,31,7,4,417.4906258250012,424.1912748600007,424.1912748600007,424.1882858099998,same,chase80coh_0.5oct,None,debugging_monitor,mouse,None,"[800, 800]",32,False,255,44100,None,DFF8,NaN,/Users/chase/Desktop/NKI/Task_TaxonomyAuditoryMemory/logs/chase80coh_0.5oct,2023-07-24_15h45.32.573,2022.1.4,
400,0.5,480,0.5,32,0,5,5,0,32,7,32,0,5,431.5417763350015,437.1744527940027,437.1744527940027,437.17151136100074,diff,chase80coh_0.5oct,None,debugging_monitor,mouse,None,"[800, 800]",32,False,255,44100,None,DFF8,NaN,/Users/chase/Desktop/NKI/Task_TaxonomyAuditoryMemory/logs/chase80coh_0.5oct,2023-07-24_15h45.32.573,2022.1.4,
400,0.5,420,0.5,33,1,5,5,1,33,5,33,1,5,443.70695763200274,448.6546705380024,448.6546705380024,448.6417560040027,same,chase80coh_0.5oct,None,debugging_monitor,mouse,None,"[800, 800]",32,False,255,44100,None,DFF8,NaN,/Users/chase/Desktop/NKI/Task_TaxonomyAuditoryMemory/logs/chase80coh_0.5oct,2023-07-24_15h45.32.573,2022.1.4,
400,0.5,400,0.5,34,2,5,5,2,34,0,34,2,5,454.90635393600314,460.4911604910012,460.4911604910012,460.48802790000263,same,chase80coh_0.5oct,None,debugging_monitor,mouse,None,"[800, 800]",32,False,255,44100,None,DFF8,NaN,/Users/chase/Desktop/NKI/Task_TaxonomyAuditoryMemory/logs/chase80coh_0.5oct,2023-07-24_15h45.32.573,2022.1.4,
400,0.5,400,0.5,35,3,5,5,3,35,1,35,3,5,467.590230703001,472.45442429600007,472.45442429600007,472.4416482400011,same,chase80coh_0.5oct,None,debugging_monitor,mouse,None,"[800, 800]",32,False,255,44100,None,DFF8,NaN,/Users/chase/Desktop/NKI/Task_TaxonomyAuditoryMemory/logs/chase80coh_0.5oct,2023-07-24_15h45.32.573,2022.1.4,
400,0.5,440,0.5,36,4,5,5,4,36,6,36,4,5,480.2420091560016,485.2210808210002,485.2210808210002,485.20803212100145,diff,chase80coh_0.5oct,None,debugging_monitor,mouse,None,"[800, 800]",32,False,255,44100,None,DFF8,NaN,/Users/chase/Desktop/NKI/Task_TaxonomyAuditoryMemory/logs/chase80coh_0.5oct,2023-07-24_15h45.32.573,2022.1.4,
400,0.5,410,0.5,37,5,5,5,5,37,4,37,5,5,493.05856174600194,497.94054172899996,497.94054172899996,497.93760524400204,same,chase80coh_0.5oct,None,debugging_monitor,mouse,None,"[800, 800]",32,False,255,44100,None,DFF8,NaN,/Users/chase/Desktop/NKI/Task_TaxonomyAuditoryMemory/logs/chase80coh_0.5oct,2023-07-24_15h45.32.573,2022.1.4,
400,0.5,400,0.5,38,6,5,5,6,38,3,38,6,5,504.87317550900116,510.89103149900257,510.89103149900257,510.88751869800035,same,chase80coh_0.5oct,None,debugging_monitor,mouse,None,"[800, 800]",32,False,255,44100,None,DFF8,NaN,/Users/chase/Desktop/NKI/Task_TaxonomyAuditoryMemory/logs/chase80coh_0.5oct,2023-07-24_15h45.32.573,2022.1.4,
400,0.5,400,0.5,39,7,5,5,7,39,2,39,7,5,517.2723766470008,522.9907340150021,522.9907340150021,522.9874692680023,same,chase80coh_0.5oct,None,debugging_monitor,mouse,None,"[800, 800]",32,False,255,44100,None,DFF8,NaN,/Users/chase/Desktop/NKI/Task_TaxonomyAuditoryMemory/logs/chase80coh_0.5oct,2023-07-24_15h45.32.573,2022.1.4,
400,0.5,400,0.5,40,0,6,6,0,40,2,40,0,6,529.0230492540031,534.6740223260022,534.6740223260022,534.6707366510018,same,chase80coh_0.5oct,None,debugging_monitor,mouse,None,"[800, 800]",32,False,255,44100,None,DFF8,NaN,/Users/chase/Desktop/NKI/Task_TaxonomyAuditoryMemory/logs/chase80coh_0.5oct,2023-07-24_15h45.32.573,2022.1.4,
400,0.5,400,0.5,41,1,6,6,1,41,1,41,1,6,541.6910122709996,547.8070060320024,547.8070060320024,547.8038737670031,same,chase80coh_0.5oct,None,debugging_monitor,mouse,None,"[800, 800]",32,False,255,44100,None,DFF8,NaN,/Users/chase/Desktop/NKI/Task_TaxonomyAuditoryMemory/logs/chase80coh_0.5oct,2023-07-24_15h45.32.573,2022.1.4,
400,0.5,400,0.5,42,2,6,6,2,42,3,42,2,6,554.8421055979998,560.8538263670016,560.8538263670016,560.8409405500024,same,chase80coh_0.5oct,None,debugging_monitor,mouse,None,"[800, 800]",32,False,255,44100,None,DFF8,NaN,/Users/chase/Desktop/NKI/Task_TaxonomyAuditoryMemory/logs/chase80coh_0.5oct,2023-07-24_15h45.32.573,2022.1.4,
400,0.5,480,0.5,43,3,6,6,3,43,7,43,3,6,567.1247099300017,573.8204088560014,573.8204088560014,573.8073323220015,diff,chase80coh_0.5oct,None,debugging_monitor,mouse,None,"[800, 800]",32,False,255,44100,None,DFF8,NaN,/Users/chase/Desktop/NKI/Task_TaxonomyAuditoryMemory/logs/chase80coh_0.5oct,2023-07-24_15h45.32.573,2022.1.4,
400,0.5,420,0.5,44,4,6,6,4,44,5,44,4,6,580.7576432850001,587.8231840850021,587.8231840850021,587.8201436890013,diff,chase80coh_0.5oct,None,debugging_monitor,mouse,None,"[800, 800]",32,False,255,44100,None,DFF8,NaN,/Users/chase/Desktop/NKI/Task_TaxonomyAuditoryMemory/logs/chase80coh_0.5oct,2023-07-24_15h45.32.573,2022.1.4,
400,0.5,410,0.5,45,5,6,6,5,45,4,45,5,6,595.6913014860002,601.3401337370015,601.3401337370015,601.3367885760017,diff,chase80coh_0.5oct,None,debugging_monitor,mouse,None,"[800, 800]",32,False,255,44100,None,DFF8,NaN,/Users/chase/Desktop/NKI/Task_TaxonomyAuditoryMemory/logs/chase80coh_0.5oct,2023-07-24_15h45.32.573,2022.1.4,
400,0.5,400,0.5,46,6,6,6,6,46,0,46,6,6,609.0068503830007,614.2533265260026,614.2533265260026,614.2406804910024,same,chase80coh_0.5oct,None,debugging_monitor,mouse,None,"[800, 800]",32,False,255,44100,None,DFF8,NaN,/Users/chase/Desktop/NKI/Task_TaxonomyAuditoryMemory/logs/chase80coh_0.5oct,2023-07-24_15h45.32.573,2022.1.4,
400,0.5,440,0.5,47,7,6,6,7,47,6,47,7,6,621.6365400370014,626.6532015060002,626.6532015060002,626.6401203230016,diff,chase80coh_0.5oct,None,debugging_monitor,mouse,None,"[800, 800]",32,False,255,44100,None,DFF8,NaN,/Users/chase/Desktop/NKI/Task_TaxonomyAuditoryMemory/logs/chase80coh_0.5oct,2023-07-24_15h45.32.573,2022.1.4,
400,0.5,480,0.5,48,0,7,7,0,48,7,48,0,7,632.8052247380001,637.7197269170028,637.7197269170028,637.706700763003,diff,chase80coh_0.5oct,None,debugging_monitor,mouse,None,"[800, 800]",32,False,255,44100,None,DFF8,NaN,/Users/chase/Desktop/NKI/Task_TaxonomyAuditoryMemory/logs/chase80coh_0.5oct,2023-07-24_15h45.32.573,2022.1.4,
400,0.5,440,0.5,49,1,7,7,1,49,6,49,1,7,644.8530699700023,650.0864124180007,650.0864124180007,650.0738609420005,diff,chase80coh_0.5oct,None,debugging_monitor,mouse,None,"[800, 800]",32,False,255,44100,None,DFF8,NaN,/Users/chase/Desktop/NKI/Task_TaxonomyAuditoryMemory/logs/chase80coh_0.5oct,2023-07-24_15h45.32.573,2022.1.4,
400,0.5,400,0.5,50,2,7,7,2,50,2,50,2,7,656.6732307800012,661.5403674480003,661.5403674480003,661.5364837920024,same,chase80coh_0.5oct,None,debugging_monitor,mouse,None,"[800, 800]",32,False,255,44100,None,DFF8,NaN,/Users/chase/Desktop/NKI/Task_TaxonomyAuditoryMemory/logs/chase80coh_0.5oct,2023-07-24_15h45.32.573,2022.1.4,
400,0.5,400,0.5,51,3,7,7,3,51,0,51,3,7,668.6549313100004,675.2195377380012,675.2195377380012,675.206709596001,same,chase80coh_0.5oct,None,debugging_monitor,mouse,None,"[800, 800]",32,False,255,44100,None,DFF8,NaN,/Users/chase/Desktop/NKI/Task_TaxonomyAuditoryMemory/logs/chase80coh_0.5oct,2023-07-24_15h45.32.573,2022.1.4,
400,0.5,400,0.5,52,4,7,7,4,52,3,52,4,7,682.2065309410027,688.372621904,688.372621904,688.3693950930028,same,chase80coh_0.5oct,None,debugging_monitor,mouse,None,"[800, 800]",32,False,255,44100,None,DFF8,NaN,/Users/chase/Desktop/NKI/Task_TaxonomyAuditoryMemory/logs/chase80coh_0.5oct,2023-07-24_15h45.32.573,2022.1.4,
400,0.5,420,0.5,53,5,7,7,5,53,5,53,5,7,694.4236590319997,699.4725173870029,699.4725173870029,699.469340327003,same,chase80coh_0.5oct,None,debugging_monitor,mouse,None,"[800, 800]",32,False,255,44100,None,DFF8,NaN,/Users/chase/Desktop/NKI/Task_TaxonomyAuditoryMemory/logs/chase80coh_0.5oct,2023-07-24_15h45.32.573,2022.1.4,
400,0.5,400,0.5,54,6,7,7,6,54,1,54,6,7,706.9897717200001,711.8724382130022,711.8724382130022,711.8693701810007,same,chase80coh_0.5oct,None,debugging_monitor,mouse,None,"[800, 800]",32,False,255,44100,None,DFF8,NaN,/Users/chase/Desktop/NKI/Task_TaxonomyAuditoryMemory/logs/chase80coh_0.5oct,2023-07-24_15h45.32.573,2022.1.4,
400,0.5,410,0.5,55,7,7,7,7,55,4,55,7,7,719.8897828650006,725.139290567,725.139290567,725.1358967250017,diff,chase80coh_0.5oct,None,debugging_monitor,mouse,None,"[800, 800]",32,False,255,44100,None,DFF8,NaN,/Users/chase/Desktop/NKI/Task_TaxonomyAuditoryMemory/logs/chase80coh_0.5oct,2023-07-24_15h45.32.573,2022.1.4,
400,0.5,400,0.5,56,0,8,8,0,56,3,56,0,8,732.3896303190013,737.752361015002,737.752361015002,737.7391995450016,same,chase80coh_0.5oct,None,debugging_monitor,mouse,None,"[800, 800]",32,False,255,44100,None,DFF8,NaN,/Users/chase/Desktop/NKI/Task_TaxonomyAuditoryMemory/logs/chase80coh_0.5oct,2023-07-24_15h45.32.573,2022.1.4,
400,0.5,400,0.5,57,1,8,8,1,57,1,57,1,8,744.0224238860028,750.3022025339997,750.3022025339997,750.2897517180027,diff,chase80coh_0.5oct,None,debugging_monitor,mouse,None,"[800, 800]",32,False,255,44100,None,DFF8,NaN,/Users/chase/Desktop/NKI/Task_TaxonomyAuditoryMemory/logs/chase80coh_0.5oct,2023-07-24_15h45.32.573,2022.1.4,
400,0.5,440,0.5,58,2,8,8,2,58,6,58,2,8,756.4044313150007,761.3521368440015,761.3521368440015,761.3393999790023,diff,chase80coh_0.5oct,None,debugging_monitor,mouse,None,"[800, 800]",32,False,255,44100,None,DFF8,NaN,/Users/chase/Desktop/NKI/Task_TaxonomyAuditoryMemory/logs/chase80coh_0.5oct,2023-07-24_15h45.32.573,2022.1.4,
400,0.5,400,0.5,59,3,8,8,3,59,0,59,3,8,767.5557219350012,772.5853692890014,772.5853692890014,772.5723392260006,same,chase80coh_0.5oct,None,debugging_monitor,mouse,None,"[800, 800]",32,False,255,44100,None,DFF8,NaN,/Users/chase/Desktop/NKI/Task_TaxonomyAuditoryMemory/logs/chase80coh_0.5oct,2023-07-24_15h45.32.573,2022.1.4,
400,0.5,480,0.5,60,4,8,8,4,60,7,60,4,8,779.172395562,784.2219284950006,784.2219284950006,784.218636888003,diff,chase80coh_0.5oct,None,debugging_monitor,mouse,None,"[800, 800]",32,False,255,44100,None,DFF8,NaN,/Users/chase/Desktop/NKI/Task_TaxonomyAuditoryMemory/logs/chase80coh_0.5oct,2023-07-24_15h45.32.573,2022.1.4,
400,0.5,400,0.5,61,5,8,8,5,61,2,61,5,8,790.9352242540008,796.1216705220031,796.1216705220031,796.1185692310028,same,chase80coh_0.5oct,None,debugging_monitor,mouse,None,"[800, 800]",32,False,255,44100,None,DFF8,NaN,/Users/chase/Desktop/NKI/Task_TaxonomyAuditoryMemory/logs/chase80coh_0.5oct,2023-07-24_15h45.32.573,2022.1.4,
400,0.5,420,0.5,62,6,8,8,6,62,5,62,6,8,802.6228058550005,808.0517793700019,808.0517793700019,808.0392034569995,same,chase80coh_0.5oct,None,debugging_monitor,mouse,None,"[800, 800]",32,False,255,44100,None,DFF8,NaN,/Users/chase/Desktop/NKI/Task_TaxonomyAuditoryMemory/logs/chase80coh_0.5oct,2023-07-24_15h45.32.573,2022.1.4,
400,0.5,410,0.5,63,7,8,8,7,63,4,63,7,8,814.421596973003,821.5222312950027,821.5222312950027,821.5183851820002,diff,chase80coh_0.5oct,None,debugging_monitor,mouse,None,"[800, 800]",32,False,255,44100,None,DFF8,NaN,/Users/chase/Desktop/NKI/Task_TaxonomyAuditoryMemory/logs/chase80coh_0.5oct,2023-07-24_15h45.32.573,2022.1.4,
400,0.5,400,0.5,64,0,9,9,0,64,1,64,0,9,828.5550371520003,834.0879868949996,834.0879868949996,834.084843607001,same,chase80coh_0.5oct,None,debugging_monitor,mouse,None,"[800, 800]",32,False,255,44100,None,DFF8,NaN,/Users/chase/Desktop/NKI/Task_TaxonomyAuditoryMemory/logs/chase80coh_0.5oct,2023-07-24_15h45.32.573,2022.1.4,
400,0.5,420,0.5,65,1,9,9,1,65,5,65,1,9,841.8717243210012,846.8347913280013,846.8347913280013,846.8221562520012,same,chase80coh_0.5oct,None,debugging_monitor,mouse,None,"[800, 800]",32,False,255,44100,None,DFF8,NaN,/Users/chase/Desktop/NKI/Task_TaxonomyAuditoryMemory/logs/chase80coh_0.5oct,2023-07-24_15h45.32.573,2022.1.4,
400,0.5,410,0.5,66,2,9,9,2,66,4,66,2,9,854.3884355730006,859.8013244410031,859.8013244410031,859.7881657230027,same,chase80coh_0.5oct,None,debugging_monitor,mouse,None,"[800, 800]",32,False,255,44100,None,DFF8,NaN,/Users/chase/Desktop/NKI/Task_TaxonomyAuditoryMemory/logs/chase80coh_0.5oct,2023-07-24_15h45.32.573,2022.1.4,
400,0.5,480,0.5,67,3,9,9,3,67,7,67,3,9,866.4055948560017,871.5011991579995,871.5011991579995,871.4883993719995,diff,chase80coh_0.5oct,None,debugging_monitor,mouse,None,"[800, 800]",32,False,255,44100,None,DFF8,NaN,/Users/chase/Desktop/NKI/Task_TaxonomyAuditoryMemory/logs/chase80coh_0.5oct,2023-07-24_15h45.32.573,2022.1.4,
400,0.5,400,0.5,68,4,9,9,4,68,3,68,4,9,878.7047426240024,884.8345460310011,884.8345460310011,884.8213854150017,same,chase80coh_0.5oct,None,debugging_monitor,mouse,None,"[800, 800]",32,False,255,44100,None,DFF8,NaN,/Users/chase/Desktop/NKI/Task_TaxonomyAuditoryMemory/logs/chase80coh_0.5oct,2023-07-24_15h45.32.573,2022.1.4,
400,0.5,440,0.5,69,5,9,9,5,69,6,69,5,9,891.4193120030031,896.5010602690018,896.5010602690018,896.4878109710007,diff,chase80coh_0.5oct,None,debugging_monitor,mouse,None,"[800, 800]",32,False,255,44100,None,DFF8,NaN,/Users/chase/Desktop/NKI/Task_TaxonomyAuditoryMemory/logs/chase80coh_0.5oct,2023-07-24_15h45.32.573,2022.1.4,
400,0.5,400,0.5,70,6,9,9,6,70,2,70,6,9,903.8882568410008,910.017566429,910.017566429,910.0047301400009,same,chase80coh_0.5oct,None,debugging_monitor,mouse,None,"[800, 800]",32,False,255,44100,None,DFF8,NaN,/Users/chase/Desktop/NKI/Task_TaxonomyAuditoryMemory/logs/chase80coh_0.5oct,2023-07-24_15h45.32.573,2022.1.4,
400,0.5,400,0.5,71,7,9,9,7,71,0,71,7,9,916.2196181690015,922.034129869,922.034129869,922.0212130310028,same,chase80coh_0.5oct,None,debugging_monitor,mouse,None,"[800, 800]",32,False,255,44100,None,DFF8,NaN,/Users/chase/Desktop/NKI/Task_TaxonomyAuditoryMemory/logs/chase80coh_0.5oct,2023-07-24_15h45.32.573,2022.1.4,
400,0.5,420,0.5,72,0,10,10,0,72,5,72,0,10,928.7380824710017,934.950669201,934.950669201,934.9381784420002,same,chase80coh_0.5oct,None,debugging_monitor,mouse,None,"[800, 800]",32,False,255,44100,None,DFF8,NaN,/Users/chase/Desktop/NKI/Task_TaxonomyAuditoryMemory/logs/chase80coh_0.5oct,2023-07-24_15h45.32.573,2022.1.4,
400,0.5,400,0.5,73,1,10,10,1,73,0,73,1,10,942.9707615350017,947.920384817,947.920384817,947.9172286909998,same,chase80coh_0.5oct,None,debugging_monitor,mouse,None,"[800, 800]",32,False,255,44100,None,DFF8,NaN,/Users/chase/Desktop/NKI/Task_TaxonomyAuditoryMemory/logs/chase80coh_0.5oct,2023-07-24_15h45.32.573,2022.1.4,
400,0.5,410,0.5,74,2,10,10,2,74,4,74,2,10,954.6194625490025,960.020682731003,960.020682731003,960.0172368029998,same,chase80coh_0.5oct,None,debugging_monitor,mouse,None,"[800, 800]",32,False,255,44100,None,DFF8,NaN,/Users/chase/Desktop/NKI/Task_TaxonomyAuditoryMemory/logs/chase80coh_0.5oct,2023-07-24_15h45.32.573,2022.1.4,
400,0.5,480,0.5,75,3,10,10,3,75,7,75,3,10,967.8861379650007,974.2531669840027,974.2531669840027,974.2503361960007,diff,chase80coh_0.5oct,None,debugging_monitor,mouse,None,"[800, 800]",32,False,255,44100,None,DFF8,NaN,/Users/chase/Desktop/NKI/Task_TaxonomyAuditoryMemory/logs/chase80coh_0.5oct,2023-07-24_15h45.32.573,2022.1.4,
400,0.5,400,0.5,76,4,10,10,4,76,2,76,4,10,980.5377614950012,987.103045535001,987.103045535001,987.100259709001,same,chase80coh_0.5oct,None,debugging_monitor,mouse,None,"[800, 800]",32,False,255,44100,None,DFF8,NaN,/Users/chase/Desktop/NKI/Task_TaxonomyAuditoryMemory/logs/chase80coh_0.5oct,2023-07-24_15h45.32.573,2022.1.4,
400,0.5,400,0.5,77,5,10,10,5,77,3,77,5,10,993.7371123960002,1000.0696343830023,1000.0696343830023,1000.0668614330025,same,chase80coh_0.5oct,None,debugging_monitor,mouse,None,"[800, 800]",32,False,255,44100,None,DFF8,NaN,/Users/chase/Desktop/NKI/Task_TaxonomyAuditoryMemory/logs/chase80coh_0.5oct,2023-07-24_15h45.32.573,2022.1.4,
400,0.5,440,0.5,78,6,10,10,6,78,6,78,6,10,1007.6022853060022,1013.3029512600006,1013.3029512600006,1013.3000479880029,diff,chase80coh_0.5oct,None,debugging_monitor,mouse,None,"[800, 800]",32,False,255,44100,None,DFF8,NaN,/Users/chase/Desktop/NKI/Task_TaxonomyAuditoryMemory/logs/chase80coh_0.5oct,2023-07-24_15h45.32.573,2022.1.4,
400,0.5,400,0.5,79,7,10,10,7,79,1,79,7,10,1021.2535597910028,1026.4196884730009,1026.4196884730009,1026.4166532890013,same,chase80coh_0.5oct,None,debugging_monitor,mouse,None,"[800, 800]",32,False,255,44100,None,DFF8,NaN,/Users/chase/Desktop/NKI/Task_TaxonomyAuditoryMemory/logs/chase80coh_0.5oct,2023-07-24_15h45.32.573,2022.1.4,
400,0.5,440,0.5,80,0,11,11,0,80,6,80,0,11,1034.051962286001,1038.9194316920002,1038.9194316920002,1038.9164688750025,diff,chase80coh_0.5oct,None,debugging_monitor,mouse,None,"[800, 800]",32,False,255,44100,None,DFF8,NaN,/Users/chase/Desktop/NKI/Task_TaxonomyAuditoryMemory/logs/chase80coh_0.5oct,2023-07-24_15h45.32.573,2022.1.4,
400,0.5,480,0.5,81,1,11,11,1,81,7,81,1,11,1045.8018603000019,1051.8192468779998,1051.8192468779998,1051.8163545330026,diff,chase80coh_0.5oct,None,debugging_monitor,mouse,None,"[800, 800]",32,False,255,44100,None,DFF8,NaN,/Users/chase/Desktop/NKI/Task_TaxonomyAuditoryMemory/logs/chase80coh_0.5oct,2023-07-24_15h45.32.573,2022.1.4,
400,0.5,400,0.5,82,2,11,11,2,82,3,82,2,11,1059.6199054370009,1065.7692443190026,1065.7692443190026,1065.7662920490002,same,chase80coh_0.5oct,None,debugging_monitor,mouse,None,"[800, 800]",32,False,255,44100,None,DFF8,NaN,/Users/chase/Desktop/NKI/Task_TaxonomyAuditoryMemory/logs/chase80coh_0.5oct,2023-07-24_15h45.32.573,2022.1.4,
400,0.5,400,0.5,83,3,11,11,3,83,1,83,3,11,1072.0853849600026,1077.5356620830025,1077.5356620830025,1077.5328859910005,same,chase80coh_0.5oct,None,debugging_monitor,mouse,None,"[800, 800]",32,False,255,44100,None,DFF8,NaN,/Users/chase/Desktop/NKI/Task_TaxonomyAuditoryMemory/logs/chase80coh_0.5oct,2023-07-24_15h45.32.573,2022.1.4,
400,0.5,410,0.5,84,4,11,11,4,84,4,84,4,11,1084.834889290003,1090.885873004001,1090.885873004001,1090.8828098209997,diff,chase80coh_0.5oct,None,debugging_monitor,mouse,None,"[800, 800]",32,False,255,44100,None,DFF8,NaN,/Users/chase/Desktop/NKI/Task_TaxonomyAuditoryMemory/logs/chase80coh_0.5oct,2023-07-24_15h45.32.573,2022.1.4,
400,0.5,400,0.5,85,5,11,11,5,85,0,85,5,11,1097.5345273990024,1104.102385221002,1104.102385221002,1104.099296548,same,chase80coh_0.5oct,None,debugging_monitor,mouse,None,"[800, 800]",32,False,255,44100,None,DFF8,NaN,/Users/chase/Desktop/NKI/Task_TaxonomyAuditoryMemory/logs/chase80coh_0.5oct,2023-07-24_15h45.32.573,2022.1.4,
400,0.5,420,0.5,86,6,11,11,6,86,5,86,6,11,1110.3691401979995,1115.9824723580023,1115.9824723580023,1115.9717784349996,diff,chase80coh_0.5oct,None,debugging_monitor,mouse,None,"[800, 800]",32,False,255,44100,None,DFF8,NaN,/Users/chase/Desktop/NKI/Task_TaxonomyAuditoryMemory/logs/chase80coh_0.5oct,2023-07-24_15h45.32.573,2022.1.4,
400,0.5,400,0.5,87,7,11,11,7,87,2,87,7,11,1122.9850340010016,1128.818584585002,1128.818584585002,1128.815770739002,same,chase80coh_0.5oct,None,debugging_monitor,mouse,None,"[800, 800]",32,False,255,44100,None,DFF8,NaN,/Users/chase/Desktop/NKI/Task_TaxonomyAuditoryMemory/logs/chase80coh_0.5oct,2023-07-24_15h45.32.573,2022.1.4,
400,0.5,440,0.5,88,0,12,12,0,88,6,88,0,12,1135.9843608360025,1141.6521914090008,1141.6521914090008,1141.6490882350008,diff,chase80coh_0.5oct,None,debugging_monitor,mouse,None,"[800, 800]",32,False,255,44100,None,DFF8,NaN,/Users/chase/Desktop/NKI/Task_TaxonomyAuditoryMemory/logs/chase80coh_0.5oct,2023-07-24_15h45.32.573,2022.1.4,
400,0.5,400,0.5,89,1,12,12,1,89,1,89,1,12,1148.6691867570007,1155.0351771189999,1155.0351771189999,1155.0323023500023,same,chase80coh_0.5oct,None,debugging_monitor,mouse,None,"[800, 800]",32,False,255,44100,None,DFF8,NaN,/Users/chase/Desktop/NKI/Task_TaxonomyAuditoryMemory/logs/chase80coh_0.5oct,2023-07-24_15h45.32.573,2022.1.4,
400,0.5,400,0.5,90,2,12,12,2,90,2,90,2,12,1161.1670828070019,1167.8820637540011,1167.8820637540011,1167.869120632,same,chase80coh_0.5oct,None,debugging_monitor,mouse,None,"[800, 800]",32,False,255,44100,None,DFF8,NaN,/Users/chase/Desktop/NKI/Task_TaxonomyAuditoryMemory/logs/chase80coh_0.5oct,2023-07-24_15h45.32.573,2022.1.4,
400,0.5,480,0.5,91,3,12,12,3,91,7,91,3,12,1173.985518333,1179.084812502002,1179.084812502002,1179.0820169870021,diff,chase80coh_0.5oct,None,debugging_monitor,mouse,None,"[800, 800]",32,False,255,44100,None,DFF8,NaN,/Users/chase/Desktop/NKI/Task_TaxonomyAuditoryMemory/logs/chase80coh_0.5oct,2023-07-24_15h45.32.573,2022.1.4,
400,0.5,420,0.5,92,4,12,12,4,92,5,92,4,12,1187.1168287479995,1192.9181199220002,1192.9181199220002,1192.9152041020025,same,chase80coh_0.5oct,None,debugging_monitor,mouse,None,"[800, 800]",32,False,255,44100,None,DFF8,NaN,/Users/chase/Desktop/NKI/Task_TaxonomyAuditoryMemory/logs/chase80coh_0.5oct,2023-07-24_15h45.32.573,2022.1.4,
400,0.5,400,0.5,93,5,12,12,5,93,3,93,5,12,1199.0006350559997,1205.9015494840023,1205.9015494840023,1205.8984777639998,same,chase80coh_0.5oct,None,debugging_monitor,mouse,None,"[800, 800]",32,False,255,44100,None,DFF8,NaN,/Users/chase/Desktop/NKI/Task_TaxonomyAuditoryMemory/logs/chase80coh_0.5oct,2023-07-24_15h45.32.573,2022.1.4,
400,0.5,410,0.5,94,6,12,12,6,94,4,94,6,12,1212.6859328560022,1218.981691506,1218.981691506,1218.971394307002,same,chase80coh_0.5oct,None,debugging_monitor,mouse,None,"[800, 800]",32,False,255,44100,None,DFF8,NaN,/Users/chase/Desktop/NKI/Task_TaxonomyAuditoryMemory/logs/chase80coh_0.5oct,2023-07-24_15h45.32.573,2022.1.4,
400,0.5,400,0.5,95,7,12,12,7,95,0,95,7,12,1226.3188238250004,1231.9815648490003,1231.9815648490003,1231.971204114001,same,chase80coh_0.5oct,None,debugging_monitor,mouse,None,"[800, 800]",32,False,255,44100,None,DFF8,NaN,/Users/chase/Desktop/NKI/Task_TaxonomyAuditoryMemory/logs/chase80coh_0.5oct,2023-07-24_15h45.32.573,2022.1.4,
400,0.5,440,0.5,96,0,13,13,0,96,6,96,0,13,1238.0839932910021,1243.0351026880016,1243.0351026880016,1243.0315541810014,diff,chase80coh_0.5oct,None,debugging_monitor,mouse,None,"[800, 800]",32,False,255,44100,None,DFF8,NaN,/Users/chase/Desktop/NKI/Task_TaxonomyAuditoryMemory/logs/chase80coh_0.5oct,2023-07-24_15h45.32.573,2022.1.4,
400,0.5,410,0.5,97,1,13,13,1,97,4,97,1,13,1250.3849489720014,1257.0509171770027,1257.0509171770027,1257.0479597420017,same,chase80coh_0.5oct,None,debugging_monitor,mouse,None,"[800, 800]",32,False,255,44100,None,DFF8,NaN,/Users/chase/Desktop/NKI/Task_TaxonomyAuditoryMemory/logs/chase80coh_0.5oct,2023-07-24_15h45.32.573,2022.1.4,
400,0.5,400,0.5,98,2,13,13,2,98,0,98,2,13,1263.6188523050005,1269.3674695510017,1269.3674695510017,1269.3645194920027,same,chase80coh_0.5oct,None,debugging_monitor,mouse,None,"[800, 800]",32,False,255,44100,None,DFF8,NaN,/Users/chase/Desktop/NKI/Task_TaxonomyAuditoryMemory/logs/chase80coh_0.5oct,2023-07-24_15h45.32.573,2022.1.4,
400,0.5,400,0.5,99,3,13,13,3,99,1,99,3,13,1275.5016722180007,1281.5310848299996,1281.5310848299996,1281.5181429940021,same,chase80coh_0.5oct,None,debugging_monitor,mouse,None,"[800, 800]",32,False,255,44100,None,DFF8,NaN,/Users/chase/Desktop/NKI/Task_TaxonomyAuditoryMemory/logs/chase80coh_0.5oct,2023-07-24_15h45.32.573,2022.1.4,
400,0.5,420,0.5,100,4,13,13,4,100,5,100,4,13,1288.3685253770018,1293.5976499960016,1293.5976499960016,1293.5852833000026,diff,chase80coh_0.5oct,None,debugging_monitor,mouse,None,"[800, 800]",32,False,255,44100,None,DFF8,NaN,/Users/chase/Desktop/NKI/Task_TaxonomyAuditoryMemory/logs/chase80coh_0.5oct,2023-07-24_15h45.32.573,2022.1.4,
400,0.5,480,0.5,101,5,13,13,5,101,7,101,5,13,1300.0679151540025,1307.4345868910023,1307.4345868910023,1307.4311056280021,diff,chase80coh_0.5oct,None,debugging_monitor,mouse,None,"[800, 800]",32,False,255,44100,None,DFF8,NaN,/Users/chase/Desktop/NKI/Task_TaxonomyAuditoryMemory/logs/chase80coh_0.5oct,2023-07-24_15h45.32.573,2022.1.4,
400,0.5,400,0.5,102,6,13,13,6,102,2,102,6,13,1314.0684023380018,1319.247429803003,1319.247429803003,1319.2348658420015,same,chase80coh_0.5oct,None,debugging_monitor,mouse,None,"[800, 800]",32,False,255,44100,None,DFF8,NaN,/Users/chase/Desktop/NKI/Task_TaxonomyAuditoryMemory/logs/chase80coh_0.5oct,2023-07-24_15h45.32.573,2022.1.4,
,,,,103,7,13,,,,,103,7,13,,,,,,,,,,,,,,,,,,,,,,
