cue_frequency,cue_frequency_range,choice_frequency,choice_frequency_range,thisN,thisTrialN,thisRepN,.thisRepN,.thisTrialN,.thisN,.thisIndex,thisN,thisTrialN,thisRepN,audio_onset,audio_offset,display_feedback,response_time,response,runid,ttl,monitor,responseType,eyetracker,screen_resolution,monitor_width,full_screen,ttl_code,sound_fs,mmb_port_code,pport_port_code,ttl_port,outputDir,date,psychopy_version,
400,0.5,400,0.5,0,0,1,1,0,0,0,0,0,1,17.389567230000466,22.97427494099975,22.97427494099975,22.97088048399928,same,chase50coh_0.5oct3,None,debugging_monitor,mouse,None,"[800, 800]",32,False,255,44100,None,DFF8,NaN,/Users/chase/Downloads/Task_TaxonomyAuditoryMemory-main 5/logs/chase50coh_0.5oct3,2023-07-21_12h44.28.864,2022.1.4,
400,0.5,480,0.5,1,1,1,1,1,1,7,1,1,1,30.974391204999847,36.22085484300078,36.22085484300078,36.20925215200077,diff,chase50coh_0.5oct3,None,debugging_monitor,mouse,None,"[800, 800]",32,False,255,44100,None,DFF8,NaN,/Users/chase/Downloads/Task_TaxonomyAuditoryMemory-main 5/logs/chase50coh_0.5oct3,2023-07-21_12h44.28.864,2022.1.4,
400,0.5,400,0.5,2,2,1,1,2,2,1,2,2,1,43.72496601900093,49.89008905300034,49.89008905300034,49.88744817500083,same,chase50coh_0.5oct3,None,debugging_monitor,mouse,None,"[800, 800]",32,False,255,44100,None,DFF8,NaN,/Users/chase/Downloads/Task_TaxonomyAuditoryMemory-main 5/logs/chase50coh_0.5oct3,2023-07-21_12h44.28.864,2022.1.4,
400,0.5,420,0.5,3,3,1,1,3,3,5,3,3,1,56.72259626199957,62.40669123599946,62.40669123599946,62.40396783799952,diff,chase50coh_0.5oct3,None,debugging_monitor,mouse,None,"[800, 800]",32,False,255,44100,None,DFF8,NaN,/Users/chase/Downloads/Task_TaxonomyAuditoryMemory-main 5/logs/chase50coh_0.5oct3,2023-07-21_12h44.28.864,2022.1.4,
400,0.5,410,0.5,4,4,1,1,4,4,4,4,4,1,70.05759801800014,76.25745866299985,76.25745866299985,76.2539746679995,same,chase50coh_0.5oct3,None,debugging_monitor,mouse,None,"[800, 800]",32,False,255,44100,None,DFF8,NaN,/Users/chase/Downloads/Task_TaxonomyAuditoryMemory-main 5/logs/chase50coh_0.5oct3,2023-07-21_12h44.28.864,2022.1.4,
400,0.5,400,0.5,5,5,1,1,5,5,2,5,5,1,84.02251062600044,89.6899029340002,89.6899029340002,89.68714555500082,same,chase50coh_0.5oct3,None,debugging_monitor,mouse,None,"[800, 800]",32,False,255,44100,None,DFF8,NaN,/Users/chase/Downloads/Task_TaxonomyAuditoryMemory-main 5/logs/chase50coh_0.5oct3,2023-07-21_12h44.28.864,2022.1.4,
400,0.5,440,0.5,6,6,1,1,6,6,6,6,6,1,96.74099837200083,101.98700892399938,101.98700892399938,101.97643914199944,diff,chase50coh_0.5oct3,None,debugging_monitor,mouse,None,"[800, 800]",32,False,255,44100,None,DFF8,NaN,/Users/chase/Downloads/Task_TaxonomyAuditoryMemory-main 5/logs/chase50coh_0.5oct3,2023-07-21_12h44.28.864,2022.1.4,
400,0.5,400,0.5,7,7,1,1,7,7,3,7,7,1,108.3226926490006,114.05657118800082,114.05657118800082,114.05376648799938,same,chase50coh_0.5oct3,None,debugging_monitor,mouse,None,"[800, 800]",32,False,255,44100,None,DFF8,NaN,/Users/chase/Downloads/Task_TaxonomyAuditoryMemory-main 5/logs/chase50coh_0.5oct3,2023-07-21_12h44.28.864,2022.1.4,
400,0.5,400,0.5,8,0,2,2,0,8,3,8,0,2,120.74084165699969,126.32298276599977,126.32298276599977,126.32014187499954,same,chase50coh_0.5oct3,None,debugging_monitor,mouse,None,"[800, 800]",32,False,255,44100,None,DFF8,NaN,/Users/chase/Downloads/Task_TaxonomyAuditoryMemory-main 5/logs/chase50coh_0.5oct3,2023-07-21_12h44.28.864,2022.1.4,
400,0.5,440,0.5,9,1,2,2,1,9,6,9,1,2,132.57210279500032,138.35607544400045,138.35607544400045,138.3533690559998,diff,chase50coh_0.5oct3,None,debugging_monitor,mouse,None,"[800, 800]",32,False,255,44100,None,DFF8,NaN,/Users/chase/Downloads/Task_TaxonomyAuditoryMemory-main 5/logs/chase50coh_0.5oct3,2023-07-21_12h44.28.864,2022.1.4,
400,0.5,400,0.5,10,2,2,2,2,10,1,10,2,2,145.09023901600085,150.78938119799932,150.78938119799932,150.7866012079994,diff,chase50coh_0.5oct3,None,debugging_monitor,mouse,None,"[800, 800]",32,False,255,44100,None,DFF8,NaN,/Users/chase/Downloads/Task_TaxonomyAuditoryMemory-main 5/logs/chase50coh_0.5oct3,2023-07-21_12h44.28.864,2022.1.4,
400,0.5,420,0.5,11,3,2,2,3,11,5,11,3,2,157.80737093100106,164.27278871599992,164.27278871599992,164.26985566700023,diff,chase50coh_0.5oct3,None,debugging_monitor,mouse,None,"[800, 800]",32,False,255,44100,None,DFF8,NaN,/Users/chase/Downloads/Task_TaxonomyAuditoryMemory-main 5/logs/chase50coh_0.5oct3,2023-07-21_12h44.28.864,2022.1.4,
400,0.5,410,0.5,12,4,2,2,4,12,4,12,4,2,170.55724254000052,176.2558952979998,176.2558952979998,176.2529622180009,diff,chase50coh_0.5oct3,None,debugging_monitor,mouse,None,"[800, 800]",32,False,255,44100,None,DFF8,NaN,/Users/chase/Downloads/Task_TaxonomyAuditoryMemory-main 5/logs/chase50coh_0.5oct3,2023-07-21_12h44.28.864,2022.1.4,
400,0.5,480,0.5,13,5,2,2,5,13,7,13,5,2,183.4897148149994,188.82221364699944,188.82221364699944,188.81940778900025,diff,chase50coh_0.5oct3,None,debugging_monitor,mouse,None,"[800, 800]",32,False,255,44100,None,DFF8,NaN,/Users/chase/Downloads/Task_TaxonomyAuditoryMemory-main 5/logs/chase50coh_0.5oct3,2023-07-21_12h44.28.864,2022.1.4,
400,0.5,400,0.5,14,6,2,2,6,14,0,14,6,2,194.97347662299944,200.75554381899929,200.75554381899929,200.75274296399948,same,chase50coh_0.5oct3,None,debugging_monitor,mouse,None,"[800, 800]",32,False,255,44100,None,DFF8,NaN,/Users/chase/Downloads/Task_TaxonomyAuditoryMemory-main 5/logs/chase50coh_0.5oct3,2023-07-21_12h44.28.864,2022.1.4,
400,0.5,400,0.5,15,7,2,2,7,15,2,15,7,2,207.33931984899937,212.888652044001,212.888652044001,212.88598005300082,same,chase50coh_0.5oct3,None,debugging_monitor,mouse,None,"[800, 800]",32,False,255,44100,None,DFF8,NaN,/Users/chase/Downloads/Task_TaxonomyAuditoryMemory-main 5/logs/chase50coh_0.5oct3,2023-07-21_12h44.28.864,2022.1.4,
400,0.5,410,0.5,16,0,3,3,0,16,4,16,0,3,219.80434027699994,227.32169475000046,227.32169475000046,227.3189662269997,diff,chase50coh_0.5oct3,None,debugging_monitor,mouse,None,"[800, 800]",32,False,255,44100,None,DFF8,NaN,/Users/chase/Downloads/Task_TaxonomyAuditoryMemory-main 5/logs/chase50coh_0.5oct3,2023-07-21_12h44.28.864,2022.1.4,
400,0.5,400,0.5,17,1,3,3,1,17,2,17,1,3,234.4230126149996,239.77208457100096,239.77208457100096,239.76889980899978,same,chase50coh_0.5oct3,None,debugging_monitor,mouse,None,"[800, 800]",32,False,255,44100,None,DFF8,NaN,/Users/chase/Downloads/Task_TaxonomyAuditoryMemory-main 5/logs/chase50coh_0.5oct3,2023-07-21_12h44.28.864,2022.1.4,
400,0.5,400,0.5,18,2,3,3,2,18,3,18,2,3,246.92288702599944,252.2715271470006,252.2715271470006,252.26868106499933,same,chase50coh_0.5oct3,None,debugging_monitor,mouse,None,"[800, 800]",32,False,255,44100,None,DFF8,NaN,/Users/chase/Downloads/Task_TaxonomyAuditoryMemory-main 5/logs/chase50coh_0.5oct3,2023-07-21_12h44.28.864,2022.1.4,
400,0.5,400,0.5,19,3,3,3,3,19,1,19,3,3,258.9717521450002,264.5235389919999,264.5235389919999,264.5205975450008,same,chase50coh_0.5oct3,None,debugging_monitor,mouse,None,"[800, 800]",32,False,255,44100,None,DFF8,NaN,/Users/chase/Downloads/Task_TaxonomyAuditoryMemory-main 5/logs/chase50coh_0.5oct3,2023-07-21_12h44.28.864,2022.1.4,
400,0.5,420,0.5,20,4,3,3,4,20,5,20,4,3,272.188715884,281.35414553400005,281.35414553400005,281.35180119399956,same,chase50coh_0.5oct3,None,debugging_monitor,mouse,None,"[800, 800]",32,False,255,44100,None,DFF8,NaN,/Users/chase/Downloads/Task_TaxonomyAuditoryMemory-main 5/logs/chase50coh_0.5oct3,2023-07-21_12h44.28.864,2022.1.4,
400,0.5,440,0.5,21,5,3,3,5,21,6,21,5,3,289.354939584,294.7349143499996,294.7349143499996,294.72310859699974,diff,chase50coh_0.5oct3,None,debugging_monitor,mouse,None,"[800, 800]",32,False,255,44100,None,DFF8,NaN,/Users/chase/Downloads/Task_TaxonomyAuditoryMemory-main 5/logs/chase50coh_0.5oct3,2023-07-21_12h44.28.864,2022.1.4,
400,0.5,400,0.5,22,6,3,3,6,22,0,22,6,3,302.12182292599937,308.187815968,308.187815968,308.18491601200003,same,chase50coh_0.5oct3,None,debugging_monitor,mouse,None,"[800, 800]",32,False,255,44100,None,DFF8,NaN,/Users/chase/Downloads/Task_TaxonomyAuditoryMemory-main 5/logs/chase50coh_0.5oct3,2023-07-21_12h44.28.864,2022.1.4,
400,0.5,480,0.5,23,7,3,3,7,23,7,23,7,3,315.10561476300063,320.43766124600006,320.43766124600006,320.4346983510004,diff,chase50coh_0.5oct3,None,debugging_monitor,mouse,None,"[800, 800]",32,False,255,44100,None,DFF8,NaN,/Users/chase/Downloads/Task_TaxonomyAuditoryMemory-main 5/logs/chase50coh_0.5oct3,2023-07-21_12h44.28.864,2022.1.4,
400,0.5,410,0.5,24,0,4,4,0,24,4,24,0,4,327.1385521430002,332.90401997200024,332.90401997200024,332.9012217230011,diff,chase50coh_0.5oct3,None,debugging_monitor,mouse,None,"[800, 800]",32,False,255,44100,None,DFF8,NaN,/Users/chase/Downloads/Task_TaxonomyAuditoryMemory-main 5/logs/chase50coh_0.5oct3,2023-07-21_12h44.28.864,2022.1.4,
400,0.5,480,0.5,25,1,4,4,1,25,7,25,1,4,339.10455697200086,344.4039845940006,344.4039845940006,344.401142101,diff,chase50coh_0.5oct3,None,debugging_monitor,mouse,None,"[800, 800]",32,False,255,44100,None,DFF8,NaN,/Users/chase/Downloads/Task_TaxonomyAuditoryMemory-main 5/logs/chase50coh_0.5oct3,2023-07-21_12h44.28.864,2022.1.4,
400,0.5,440,0.5,26,2,4,4,2,26,6,26,2,4,352.2712395670005,357.60404151700095,357.60404151700095,357.6009841030009,diff,chase50coh_0.5oct3,None,debugging_monitor,mouse,None,"[800, 800]",32,False,255,44100,None,DFF8,NaN,/Users/chase/Downloads/Task_TaxonomyAuditoryMemory-main 5/logs/chase50coh_0.5oct3,2023-07-21_12h44.28.864,2022.1.4,
400,0.5,400,0.5,27,3,4,4,3,27,1,27,3,4,365.3195764909997,370.9703169639997,370.9703169639997,370.96759277800084,same,chase50coh_0.5oct3,None,debugging_monitor,mouse,None,"[800, 800]",32,False,255,44100,None,DFF8,NaN,/Users/chase/Downloads/Task_TaxonomyAuditoryMemory-main 5/logs/chase50coh_0.5oct3,2023-07-21_12h44.28.864,2022.1.4,
400,0.5,420,0.5,28,4,4,4,4,28,5,28,4,4,378.15379535600005,383.56741001699993,383.56741001699993,383.5555443249996,diff,chase50coh_0.5oct3,None,debugging_monitor,mouse,None,"[800, 800]",32,False,255,44100,None,DFF8,NaN,/Users/chase/Downloads/Task_TaxonomyAuditoryMemory-main 5/logs/chase50coh_0.5oct3,2023-07-21_12h44.28.864,2022.1.4,
400,0.5,400,0.5,29,5,4,4,5,29,2,29,5,4,391.03763269699994,396.2535033540007,396.2535033540007,396.25065115600046,same,chase50coh_0.5oct3,None,debugging_monitor,mouse,None,"[800, 800]",32,False,255,44100,None,DFF8,NaN,/Users/chase/Downloads/Task_TaxonomyAuditoryMemory-main 5/logs/chase50coh_0.5oct3,2023-07-21_12h44.28.864,2022.1.4,
400,0.5,400,0.5,30,6,4,4,6,30,3,30,6,4,402.52149431900034,408.12025313199956,408.12025313199956,408.1171512660003,same,chase50coh_0.5oct3,None,debugging_monitor,mouse,None,"[800, 800]",32,False,255,44100,None,DFF8,NaN,/Users/chase/Downloads/Task_TaxonomyAuditoryMemory-main 5/logs/chase50coh_0.5oct3,2023-07-21_12h44.28.864,2022.1.4,
400,0.5,400,0.5,31,7,4,4,7,31,0,31,7,4,414.2857609900002,419.8369422300002,419.8369422300002,419.83378624299985,same,chase50coh_0.5oct3,None,debugging_monitor,mouse,None,"[800, 800]",32,False,255,44100,None,DFF8,NaN,/Users/chase/Downloads/Task_TaxonomyAuditoryMemory-main 5/logs/chase50coh_0.5oct3,2023-07-21_12h44.28.864,2022.1.4,
400,0.5,400,0.5,32,0,5,5,0,32,1,32,0,5,427.7045306529999,434.719886320001,434.719886320001,434.71698713800106,same,chase50coh_0.5oct3,None,debugging_monitor,mouse,None,"[800, 800]",32,False,255,44100,None,DFF8,NaN,/Users/chase/Downloads/Task_TaxonomyAuditoryMemory-main 5/logs/chase50coh_0.5oct3,2023-07-21_12h44.28.864,2022.1.4,
400,0.5,410,0.5,33,1,5,5,1,33,4,33,1,5,441.97048833200097,448.1703064030007,448.1703064030007,448.1669189540007,same,chase50coh_0.5oct3,None,debugging_monitor,mouse,None,"[800, 800]",32,False,255,44100,None,DFF8,NaN,/Users/chase/Downloads/Task_TaxonomyAuditoryMemory-main 5/logs/chase50coh_0.5oct3,2023-07-21_12h44.28.864,2022.1.4,
400,0.5,400,0.5,34,2,5,5,2,34,2,34,2,5,454.8202831760009,461.9194828609998,461.9194828609998,461.916801151001,same,chase50coh_0.5oct3,None,debugging_monitor,mouse,None,"[800, 800]",32,False,255,44100,None,DFF8,NaN,/Users/chase/Downloads/Task_TaxonomyAuditoryMemory-main 5/logs/chase50coh_0.5oct3,2023-07-21_12h44.28.864,2022.1.4,
400,0.5,420,0.5,35,3,5,5,3,35,5,35,3,5,469.43680122800106,474.5528168559995,474.5528168559995,474.5499774969994,diff,chase50coh_0.5oct3,None,debugging_monitor,mouse,None,"[800, 800]",32,False,255,44100,None,DFF8,NaN,/Users/chase/Downloads/Task_TaxonomyAuditoryMemory-main 5/logs/chase50coh_0.5oct3,2023-07-21_12h44.28.864,2022.1.4,
400,0.5,400,0.5,36,4,5,5,4,36,3,36,4,5,481.05319693599995,486.6691509730008,486.6691509730008,486.6665265160009,same,chase50coh_0.5oct3,None,debugging_monitor,mouse,None,"[800, 800]",32,False,255,44100,None,DFF8,NaN,/Users/chase/Downloads/Task_TaxonomyAuditoryMemory-main 5/logs/chase50coh_0.5oct3,2023-07-21_12h44.28.864,2022.1.4,
400,0.5,440,0.5,37,5,5,5,5,37,6,37,5,5,493.68657262300076,499.6190570109993,499.6190570109993,499.61646296099934,diff,chase50coh_0.5oct3,None,debugging_monitor,mouse,None,"[800, 800]",32,False,255,44100,None,DFF8,NaN,/Users/chase/Downloads/Task_TaxonomyAuditoryMemory-main 5/logs/chase50coh_0.5oct3,2023-07-21_12h44.28.864,2022.1.4,
400,0.5,400,0.5,38,6,5,5,6,38,0,38,6,5,506.6698776009998,512.3026116550009,512.3026116550009,512.2996571530002,same,chase50coh_0.5oct3,None,debugging_monitor,mouse,None,"[800, 800]",32,False,255,44100,None,DFF8,NaN,/Users/chase/Downloads/Task_TaxonomyAuditoryMemory-main 5/logs/chase50coh_0.5oct3,2023-07-21_12h44.28.864,2022.1.4,
400,0.5,480,0.5,39,7,5,5,7,39,7,39,7,5,518.5031455860008,523.6689426859994,523.6689426859994,523.6662480790001,diff,chase50coh_0.5oct3,None,debugging_monitor,mouse,None,"[800, 800]",32,False,255,44100,None,DFF8,NaN,/Users/chase/Downloads/Task_TaxonomyAuditoryMemory-main 5/logs/chase50coh_0.5oct3,2023-07-21_12h44.28.864,2022.1.4,
400,0.5,480,0.5,40,0,6,6,0,40,7,40,0,6,531.1515944399998,536.3022886510007,536.3022886510007,536.299492899001,diff,chase50coh_0.5oct3,None,debugging_monitor,mouse,None,"[800, 800]",32,False,255,44100,None,DFF8,NaN,/Users/chase/Downloads/Task_TaxonomyAuditoryMemory-main 5/logs/chase50coh_0.5oct3,2023-07-21_12h44.28.864,2022.1.4,
400,0.5,440,0.5,41,1,6,6,1,41,6,41,1,6,543.8847107660004,549.1854538110001,549.1854538110001,549.1826423740004,diff,chase50coh_0.5oct3,None,debugging_monitor,mouse,None,"[800, 800]",32,False,255,44100,None,DFF8,NaN,/Users/chase/Downloads/Task_TaxonomyAuditoryMemory-main 5/logs/chase50coh_0.5oct3,2023-07-21_12h44.28.864,2022.1.4,
400,0.5,400,0.5,42,2,6,6,2,42,2,42,2,6,556.5012919510009,562.1855431660006,562.1855431660006,562.182572316,same,chase50coh_0.5oct3,None,debugging_monitor,mouse,None,"[800, 800]",32,False,255,44100,None,DFF8,NaN,/Users/chase/Downloads/Task_TaxonomyAuditoryMemory-main 5/logs/chase50coh_0.5oct3,2023-07-21_12h44.28.864,2022.1.4,
400,0.5,410,0.5,43,3,6,6,3,43,4,43,3,6,568.3526109329996,574.4354660040008,574.4354660040008,574.4324829199995,diff,chase50coh_0.5oct3,None,debugging_monitor,mouse,None,"[800, 800]",32,False,255,44100,None,DFF8,NaN,/Users/chase/Downloads/Task_TaxonomyAuditoryMemory-main 5/logs/chase50coh_0.5oct3,2023-07-21_12h44.28.864,2022.1.4,
400,0.5,400,0.5,44,4,6,6,4,44,1,44,4,6,580.5529206350002,586.8186151459995,586.8186151459995,586.8157457449997,same,chase50coh_0.5oct3,None,debugging_monitor,mouse,None,"[800, 800]",32,False,255,44100,None,DFF8,NaN,/Users/chase/Downloads/Task_TaxonomyAuditoryMemory-main 5/logs/chase50coh_0.5oct3,2023-07-21_12h44.28.864,2022.1.4,
400,0.5,420,0.5,45,5,6,6,5,45,5,45,5,6,594.4024056039998,599.8017647310007,599.8017647310007,599.798934288001,diff,chase50coh_0.5oct3,None,debugging_monitor,mouse,None,"[800, 800]",32,False,255,44100,None,DFF8,NaN,/Users/chase/Downloads/Task_TaxonomyAuditoryMemory-main 5/logs/chase50coh_0.5oct3,2023-07-21_12h44.28.864,2022.1.4,
400,0.5,400,0.5,46,6,6,6,6,46,0,46,6,6,607.7697314680008,613.5853262359997,613.5853262359997,613.5821070210004,same,chase50coh_0.5oct3,None,debugging_monitor,mouse,None,"[800, 800]",32,False,255,44100,None,DFF8,NaN,/Users/chase/Downloads/Task_TaxonomyAuditoryMemory-main 5/logs/chase50coh_0.5oct3,2023-07-21_12h44.28.864,2022.1.4,
400,0.5,400,0.5,47,7,6,6,7,47,3,47,7,6,620.8342635940007,626.7350273230004,626.7350273230004,626.7320426059996,same,chase50coh_0.5oct3,None,debugging_monitor,mouse,None,"[800, 800]",32,False,255,44100,None,DFF8,NaN,/Users/chase/Downloads/Task_TaxonomyAuditoryMemory-main 5/logs/chase50coh_0.5oct3,2023-07-21_12h44.28.864,2022.1.4,
400,0.5,400,0.5,48,0,7,7,0,48,3,48,0,7,633.8194766329998,641.8682416430001,641.8682416430001,641.8652619820004,same,chase50coh_0.5oct3,None,debugging_monitor,mouse,None,"[800, 800]",32,False,255,44100,None,DFF8,NaN,/Users/chase/Downloads/Task_TaxonomyAuditoryMemory-main 5/logs/chase50coh_0.5oct3,2023-07-21_12h44.28.864,2022.1.4,
400,0.5,410,0.5,49,1,7,7,1,49,4,49,1,7,648.9353427990009,655.2183618350009,655.2183618350009,655.2152106890007,same,chase50coh_0.5oct3,None,debugging_monitor,mouse,None,"[800, 800]",32,False,255,44100,None,DFF8,NaN,/Users/chase/Downloads/Task_TaxonomyAuditoryMemory-main 5/logs/chase50coh_0.5oct3,2023-07-21_12h44.28.864,2022.1.4,
400,0.5,400,0.5,50,2,7,7,2,50,2,50,2,7,662.6853490840003,668.5483221979994,668.5483221979994,668.5379583480008,same,chase50coh_0.5oct3,None,debugging_monitor,mouse,None,"[800, 800]",32,False,255,44100,None,DFF8,NaN,/Users/chase/Downloads/Task_TaxonomyAuditoryMemory-main 5/logs/chase50coh_0.5oct3,2023-07-21_12h44.28.864,2022.1.4,
400,0.5,440,0.5,51,3,7,7,3,51,6,51,3,7,675.4024906039995,680.7845236180001,680.7845236180001,680.781607107001,diff,chase50coh_0.5oct3,None,debugging_monitor,mouse,None,"[800, 800]",32,False,255,44100,None,DFF8,NaN,/Users/chase/Downloads/Task_TaxonomyAuditoryMemory-main 5/logs/chase50coh_0.5oct3,2023-07-21_12h44.28.864,2022.1.4,
400,0.5,400,0.5,52,4,7,7,4,52,1,52,4,7,686.885017392,692.1684983480009,692.1684983480009,692.1649805420002,same,chase50coh_0.5oct3,None,debugging_monitor,mouse,None,"[800, 800]",32,False,255,44100,None,DFF8,NaN,/Users/chase/Downloads/Task_TaxonomyAuditoryMemory-main 5/logs/chase50coh_0.5oct3,2023-07-21_12h44.28.864,2022.1.4,
400,0.5,480,0.5,53,5,7,7,5,53,7,53,5,7,699.7669863570009,706.3813909199998,706.3813909199998,706.368326101001,diff,chase50coh_0.5oct3,None,debugging_monitor,mouse,None,"[800, 800]",32,False,255,44100,None,DFF8,NaN,/Users/chase/Downloads/Task_TaxonomyAuditoryMemory-main 5/logs/chase50coh_0.5oct3,2023-07-21_12h44.28.864,2022.1.4,
400,0.5,400,0.5,54,6,7,7,6,54,0,54,6,7,712.6183287059994,717.9179220259994,717.9179220259994,717.9147156170002,same,chase50coh_0.5oct3,None,debugging_monitor,mouse,None,"[800, 800]",32,False,255,44100,None,DFF8,NaN,/Users/chase/Downloads/Task_TaxonomyAuditoryMemory-main 5/logs/chase50coh_0.5oct3,2023-07-21_12h44.28.864,2022.1.4,
400,0.5,420,0.5,55,7,7,7,7,55,5,55,7,7,725.3346786500006,731.151029083001,731.151029083001,731.1478554219993,diff,chase50coh_0.5oct3,None,debugging_monitor,mouse,None,"[800, 800]",32,False,255,44100,None,DFF8,NaN,/Users/chase/Downloads/Task_TaxonomyAuditoryMemory-main 5/logs/chase50coh_0.5oct3,2023-07-21_12h44.28.864,2022.1.4,
400,0.5,410,0.5,56,0,8,8,0,56,4,56,0,8,737.2852492330003,743.7508048540003,743.7508048540003,743.7477104539994,same,chase50coh_0.5oct3,None,debugging_monitor,mouse,None,"[800, 800]",32,False,255,44100,None,DFF8,NaN,/Users/chase/Downloads/Task_TaxonomyAuditoryMemory-main 5/logs/chase50coh_0.5oct3,2023-07-21_12h44.28.864,2022.1.4,
400,0.5,420,0.5,57,1,8,8,1,57,5,57,1,8,750.1495019699996,755.8006437980002,755.8006437980002,755.797567738,diff,chase50coh_0.5oct3,None,debugging_monitor,mouse,None,"[800, 800]",32,False,255,44100,None,DFF8,NaN,/Users/chase/Downloads/Task_TaxonomyAuditoryMemory-main 5/logs/chase50coh_0.5oct3,2023-07-21_12h44.28.864,2022.1.4,
400,0.5,400,0.5,58,2,8,8,2,58,2,58,2,8,763.7351467129993,769.4838801040005,769.4838801040005,769.4808323600009,same,chase50coh_0.5oct3,None,debugging_monitor,mouse,None,"[800, 800]",32,False,255,44100,None,DFF8,NaN,/Users/chase/Downloads/Task_TaxonomyAuditoryMemory-main 5/logs/chase50coh_0.5oct3,2023-07-21_12h44.28.864,2022.1.4,
400,0.5,400,0.5,59,3,8,8,3,59,3,59,3,8,775.5329939090007,781.2672954219997,781.2672954219997,781.2640536880008,same,chase50coh_0.5oct3,None,debugging_monitor,mouse,None,"[800, 800]",32,False,255,44100,None,DFF8,NaN,/Users/chase/Downloads/Task_TaxonomyAuditoryMemory-main 5/logs/chase50coh_0.5oct3,2023-07-21_12h44.28.864,2022.1.4,
400,0.5,400,0.5,60,4,8,8,4,60,0,60,4,8,788.968203632001,794.2337025830002,794.2337025830002,794.2306594309994,same,chase50coh_0.5oct3,None,debugging_monitor,mouse,None,"[800, 800]",32,False,255,44100,None,DFF8,NaN,/Users/chase/Downloads/Task_TaxonomyAuditoryMemory-main 5/logs/chase50coh_0.5oct3,2023-07-21_12h44.28.864,2022.1.4,
400,0.5,400,0.5,61,5,8,8,5,61,1,61,5,8,801.9674693409997,809.833624840001,809.833624840001,809.8305646579993,same,chase50coh_0.5oct3,None,debugging_monitor,mouse,None,"[800, 800]",32,False,255,44100,None,DFF8,NaN,/Users/chase/Downloads/Task_TaxonomyAuditoryMemory-main 5/logs/chase50coh_0.5oct3,2023-07-21_12h44.28.864,2022.1.4,
400,0.5,440,0.5,62,6,8,8,6,62,6,62,6,8,817.1825284959996,822.3501574790007,822.3501574790007,822.3470472549998,diff,chase50coh_0.5oct3,None,debugging_monitor,mouse,None,"[800, 800]",32,False,255,44100,None,DFF8,NaN,/Users/chase/Downloads/Task_TaxonomyAuditoryMemory-main 5/logs/chase50coh_0.5oct3,2023-07-21_12h44.28.864,2022.1.4,
400,0.5,480,0.5,63,7,8,8,7,63,7,63,7,8,828.8505855509993,834.1835825939997,834.1835825939997,834.1802948179993,diff,chase50coh_0.5oct3,None,debugging_monitor,mouse,None,"[800, 800]",32,False,255,44100,None,DFF8,NaN,/Users/chase/Downloads/Task_TaxonomyAuditoryMemory-main 5/logs/chase50coh_0.5oct3,2023-07-21_12h44.28.864,2022.1.4,
400,0.5,400,0.5,64,0,9,9,0,64,0,64,0,9,842.1672235660008,847.2503892719997,847.2503892719997,847.2468704069997,same,chase50coh_0.5oct3,None,debugging_monitor,mouse,None,"[800, 800]",32,False,255,44100,None,DFF8,NaN,/Users/chase/Downloads/Task_TaxonomyAuditoryMemory-main 5/logs/chase50coh_0.5oct3,2023-07-21_12h44.28.864,2022.1.4,
400,0.5,410,0.5,65,1,9,9,1,65,4,65,1,9,855.2323871059998,862.6834062689995,862.6834062689995,862.6800659920009,same,chase50coh_0.5oct3,None,debugging_monitor,mouse,None,"[800, 800]",32,False,255,44100,None,DFF8,NaN,/Users/chase/Downloads/Task_TaxonomyAuditoryMemory-main 5/logs/chase50coh_0.5oct3,2023-07-21_12h44.28.864,2022.1.4,
400,0.5,420,0.5,66,2,9,9,2,66,5,66,2,9,869.7834006390003,875.39992437,875.39992437,875.3966637979993,diff,chase50coh_0.5oct3,None,debugging_monitor,mouse,None,"[800, 800]",32,False,255,44100,None,DFF8,NaN,/Users/chase/Downloads/Task_TaxonomyAuditoryMemory-main 5/logs/chase50coh_0.5oct3,2023-07-21_12h44.28.864,2022.1.4,
400,0.5,400,0.5,67,3,9,9,3,67,2,67,3,9,882.0834541460008,887.4333454959997,887.4333454959997,887.4298685369995,same,chase50coh_0.5oct3,None,debugging_monitor,mouse,None,"[800, 800]",32,False,255,44100,None,DFF8,NaN,/Users/chase/Downloads/Task_TaxonomyAuditoryMemory-main 5/logs/chase50coh_0.5oct3,2023-07-21_12h44.28.864,2022.1.4,
400,0.5,440,0.5,68,4,9,9,4,68,6,68,4,9,894.2652582030005,899.1993829960011,899.1993829960011,899.1963760710005,diff,chase50coh_0.5oct3,None,debugging_monitor,mouse,None,"[800, 800]",32,False,255,44100,None,DFF8,NaN,/Users/chase/Downloads/Task_TaxonomyAuditoryMemory-main 5/logs/chase50coh_0.5oct3,2023-07-21_12h44.28.864,2022.1.4,
400,0.5,400,0.5,69,5,9,9,5,69,1,69,5,9,906.198579209,911.6995800099994,911.6995800099994,911.6963668330009,same,chase50coh_0.5oct3,None,debugging_monitor,mouse,None,"[800, 800]",32,False,255,44100,None,DFF8,NaN,/Users/chase/Downloads/Task_TaxonomyAuditoryMemory-main 5/logs/chase50coh_0.5oct3,2023-07-21_12h44.28.864,2022.1.4,
400,0.5,400,0.5,70,6,9,9,6,70,3,70,6,9,919.6128572369998,925.8991532769996,925.8991532769996,925.896171321001,same,chase50coh_0.5oct3,None,debugging_monitor,mouse,None,"[800, 800]",32,False,255,44100,None,DFF8,NaN,/Users/chase/Downloads/Task_TaxonomyAuditoryMemory-main 5/logs/chase50coh_0.5oct3,2023-07-21_12h44.28.864,2022.1.4,
400,0.5,480,0.5,71,7,9,9,7,71,7,71,7,9,932.8149588640008,937.9991351330009,937.9991351330009,937.9960992060005,diff,chase50coh_0.5oct3,None,debugging_monitor,mouse,None,"[800, 800]",32,False,255,44100,None,DFF8,NaN,/Users/chase/Downloads/Task_TaxonomyAuditoryMemory-main 5/logs/chase50coh_0.5oct3,2023-07-21_12h44.28.864,2022.1.4,
400,0.5,410,0.5,72,0,10,10,0,72,4,72,0,10,944.5336904619999,949.9659141009997,949.9659141009997,949.9627184800011,diff,chase50coh_0.5oct3,None,debugging_monitor,mouse,None,"[800, 800]",32,False,255,44100,None,DFF8,NaN,/Users/chase/Downloads/Task_TaxonomyAuditoryMemory-main 5/logs/chase50coh_0.5oct3,2023-07-21_12h44.28.864,2022.1.4,
400,0.5,400,0.5,73,1,10,10,1,73,2,73,1,10,957.3475310449994,963.6155668190004,963.6155668190004,963.612571918,same,chase50coh_0.5oct3,None,debugging_monitor,mouse,None,"[800, 800]",32,False,255,44100,None,DFF8,NaN,/Users/chase/Downloads/Task_TaxonomyAuditoryMemory-main 5/logs/chase50coh_0.5oct3,2023-07-21_12h44.28.864,2022.1.4,
400,0.5,440,0.5,74,2,10,10,2,74,6,74,2,10,970.2140923610004,976.0822979549994,976.0822979549994,976.0791154170001,diff,chase50coh_0.5oct3,None,debugging_monitor,mouse,None,"[800, 800]",32,False,255,44100,None,DFF8,NaN,/Users/chase/Downloads/Task_TaxonomyAuditoryMemory-main 5/logs/chase50coh_0.5oct3,2023-07-21_12h44.28.864,2022.1.4,
400,0.5,400,0.5,75,3,10,10,3,75,3,75,3,10,983.483397725,989.5323876719995,989.5323876719995,989.5290030420001,same,chase50coh_0.5oct3,None,debugging_monitor,mouse,None,"[800, 800]",32,False,255,44100,None,DFF8,NaN,/Users/chase/Downloads/Task_TaxonomyAuditoryMemory-main 5/logs/chase50coh_0.5oct3,2023-07-21_12h44.28.864,2022.1.4,
400,0.5,480,0.5,76,4,10,10,4,76,7,76,4,10,997.0492726379998,1002.2483439650005,1002.2483439650005,1002.2455123020009,diff,chase50coh_0.5oct3,None,debugging_monitor,mouse,None,"[800, 800]",32,False,255,44100,None,DFF8,NaN,/Users/chase/Downloads/Task_TaxonomyAuditoryMemory-main 5/logs/chase50coh_0.5oct3,2023-07-21_12h44.28.864,2022.1.4,
400,0.5,420,0.5,77,5,10,10,5,77,5,77,5,10,1008.5330639399999,1014.0488462070007,1014.0488462070007,1014.0454797920011,diff,chase50coh_0.5oct3,None,debugging_monitor,mouse,None,"[800, 800]",32,False,255,44100,None,DFF8,NaN,/Users/chase/Downloads/Task_TaxonomyAuditoryMemory-main 5/logs/chase50coh_0.5oct3,2023-07-21_12h44.28.864,2022.1.4,
400,0.5,400,0.5,78,6,10,10,6,78,1,78,6,10,1021.0489297029999,1027.1653024410007,1027.1653024410007,1027.1620700010008,same,chase50coh_0.5oct3,None,debugging_monitor,mouse,None,"[800, 800]",32,False,255,44100,None,DFF8,NaN,/Users/chase/Downloads/Task_TaxonomyAuditoryMemory-main 5/logs/chase50coh_0.5oct3,2023-07-21_12h44.28.864,2022.1.4,
400,0.5,400,0.5,79,7,10,10,7,79,0,79,7,10,1034.7307725800001,1040.1483400510006,1040.1483400510006,1040.145212337,same,chase50coh_0.5oct3,None,debugging_monitor,mouse,None,"[800, 800]",32,False,255,44100,None,DFF8,NaN,/Users/chase/Downloads/Task_TaxonomyAuditoryMemory-main 5/logs/chase50coh_0.5oct3,2023-07-21_12h44.28.864,2022.1.4,
400,0.5,400,0.5,80,0,11,11,0,80,1,80,0,11,1046.3308929529994,1051.8486497100002,1051.8486497100002,1051.845128496001,same,chase50coh_0.5oct3,None,debugging_monitor,mouse,None,"[800, 800]",32,False,255,44100,None,DFF8,NaN,/Users/chase/Downloads/Task_TaxonomyAuditoryMemory-main 5/logs/chase50coh_0.5oct3,2023-07-21_12h44.28.864,2022.1.4,
400,0.5,400,0.5,81,1,11,11,1,81,3,81,1,11,1059.5320337920002,1064.6987987030006,1064.6987987030006,1064.6951262540006,same,chase50coh_0.5oct3,None,debugging_monitor,mouse,None,"[800, 800]",32,False,255,44100,None,DFF8,NaN,/Users/chase/Downloads/Task_TaxonomyAuditoryMemory-main 5/logs/chase50coh_0.5oct3,2023-07-21_12h44.28.864,2022.1.4,
400,0.5,400,0.5,82,2,11,11,2,82,0,82,2,11,1070.9449710949993,1077.4783789850007,1077.4783789850007,1077.4656173019994,same,chase50coh_0.5oct3,None,debugging_monitor,mouse,None,"[800, 800]",32,False,255,44100,None,DFF8,NaN,/Users/chase/Downloads/Task_TaxonomyAuditoryMemory-main 5/logs/chase50coh_0.5oct3,2023-07-21_12h44.28.864,2022.1.4,
400,0.5,410,0.5,83,3,11,11,3,83,4,83,3,11,1085.1816800060005,1092.1479767319997,1092.1479767319997,1092.1448296670005,same,chase50coh_0.5oct3,None,debugging_monitor,mouse,None,"[800, 800]",32,False,255,44100,None,DFF8,NaN,/Users/chase/Downloads/Task_TaxonomyAuditoryMemory-main 5/logs/chase50coh_0.5oct3,2023-07-21_12h44.28.864,2022.1.4,
400,0.5,480,0.5,84,4,11,11,4,84,7,84,4,11,1098.7135699230003,1103.7146422000005,1103.7146422000005,1103.7114268709993,diff,chase50coh_0.5oct3,None,debugging_monitor,mouse,None,"[800, 800]",32,False,255,44100,None,DFF8,NaN,/Users/chase/Downloads/Task_TaxonomyAuditoryMemory-main 5/logs/chase50coh_0.5oct3,2023-07-21_12h44.28.864,2022.1.4,
400,0.5,420,0.5,85,5,11,11,5,85,5,85,5,11,1110.0800805609997,1115.3946281530007,1115.3946281530007,1115.3816073489998,diff,chase50coh_0.5oct3,None,debugging_monitor,mouse,None,"[800, 800]",32,False,255,44100,None,DFF8,NaN,/Users/chase/Downloads/Task_TaxonomyAuditoryMemory-main 5/logs/chase50coh_0.5oct3,2023-07-21_12h44.28.864,2022.1.4,
400,0.5,400,0.5,86,6,11,11,6,86,2,86,6,11,1122.1489475969993,1127.9144882010005,1127.9144882010005,1127.9112165170009,same,chase50coh_0.5oct3,None,debugging_monitor,mouse,None,"[800, 800]",32,False,255,44100,None,DFF8,NaN,/Users/chase/Downloads/Task_TaxonomyAuditoryMemory-main 5/logs/chase50coh_0.5oct3,2023-07-21_12h44.28.864,2022.1.4,
400,0.5,440,0.5,87,7,11,11,7,87,6,87,7,11,1134.0299282060005,1140.114495496,1140.114495496,1140.1109875069997,diff,chase50coh_0.5oct3,None,debugging_monitor,mouse,None,"[800, 800]",32,False,255,44100,None,DFF8,NaN,/Users/chase/Downloads/Task_TaxonomyAuditoryMemory-main 5/logs/chase50coh_0.5oct3,2023-07-21_12h44.28.864,2022.1.4,
400,0.5,400,0.5,88,0,12,12,0,88,3,88,0,12,1146.2813653369994,1152.0807034789996,1152.0807034789996,1152.0775792040004,same,chase50coh_0.5oct3,None,debugging_monitor,mouse,None,"[800, 800]",32,False,255,44100,None,DFF8,NaN,/Users/chase/Downloads/Task_TaxonomyAuditoryMemory-main 5/logs/chase50coh_0.5oct3,2023-07-21_12h44.28.864,2022.1.4,
400,0.5,400,0.5,89,1,12,12,1,89,0,89,1,12,1158.1963572940003,1163.2276045590006,1163.2276045590006,1163.2145160870004,same,chase50coh_0.5oct3,None,debugging_monitor,mouse,None,"[800, 800]",32,False,255,44100,None,DFF8,NaN,/Users/chase/Downloads/Task_TaxonomyAuditoryMemory-main 5/logs/chase50coh_0.5oct3,2023-07-21_12h44.28.864,2022.1.4,
400,0.5,400,0.5,90,2,12,12,2,90,1,90,2,12,1169.6318205110001,1174.9140066300006,1174.9140066300006,1174.9108179989998,same,chase50coh_0.5oct3,None,debugging_monitor,mouse,None,"[800, 800]",32,False,255,44100,None,DFF8,NaN,/Users/chase/Downloads/Task_TaxonomyAuditoryMemory-main 5/logs/chase50coh_0.5oct3,2023-07-21_12h44.28.864,2022.1.4,
400,0.5,480,0.5,91,3,12,12,3,91,7,91,3,12,1181.0810638599996,1186.4144563139998,1186.4144563139998,1186.4107462360007,diff,chase50coh_0.5oct3,None,debugging_monitor,mouse,None,"[800, 800]",32,False,255,44100,None,DFF8,NaN,/Users/chase/Downloads/Task_TaxonomyAuditoryMemory-main 5/logs/chase50coh_0.5oct3,2023-07-21_12h44.28.864,2022.1.4,
400,0.5,420,0.5,92,4,12,12,4,92,5,92,4,12,1193.5294529429993,1198.9470100630006,1198.9470100630006,1198.9439716460001,diff,chase50coh_0.5oct3,None,debugging_monitor,mouse,None,"[800, 800]",32,False,255,44100,None,DFF8,NaN,/Users/chase/Downloads/Task_TaxonomyAuditoryMemory-main 5/logs/chase50coh_0.5oct3,2023-07-21_12h44.28.864,2022.1.4,
400,0.5,400,0.5,93,5,12,12,5,93,2,93,5,12,1205.1292731119993,1211.7772315519996,1211.7772315519996,1211.763882061001,same,chase50coh_0.5oct3,None,debugging_monitor,mouse,None,"[800, 800]",32,False,255,44100,None,DFF8,NaN,/Users/chase/Downloads/Task_TaxonomyAuditoryMemory-main 5/logs/chase50coh_0.5oct3,2023-07-21_12h44.28.864,2022.1.4,
400,0.5,410,0.5,94,6,12,12,6,94,4,94,6,12,1219.3959553050008,1228.1805181029995,1228.1805181029995,1228.1770599360007,diff,chase50coh_0.5oct3,None,debugging_monitor,mouse,None,"[800, 800]",32,False,255,44100,None,DFF8,NaN,/Users/chase/Downloads/Task_TaxonomyAuditoryMemory-main 5/logs/chase50coh_0.5oct3,2023-07-21_12h44.28.864,2022.1.4,
400,0.5,440,0.5,95,7,12,12,7,95,6,95,7,12,1235.7306822440005,1241.3602009959995,1241.3602009959995,1241.347343118001,diff,chase50coh_0.5oct3,None,debugging_monitor,mouse,None,"[800, 800]",32,False,255,44100,None,DFF8,NaN,/Users/chase/Downloads/Task_TaxonomyAuditoryMemory-main 5/logs/chase50coh_0.5oct3,2023-07-21_12h44.28.864,2022.1.4,
400,0.5,420,0.5,96,0,13,13,0,96,5,96,0,13,1248.8972470299996,1254.8471560500002,1254.8471560500002,1254.8434852049995,diff,chase50coh_0.5oct3,None,debugging_monitor,mouse,None,"[800, 800]",32,False,255,44100,None,DFF8,NaN,/Users/chase/Downloads/Task_TaxonomyAuditoryMemory-main 5/logs/chase50coh_0.5oct3,2023-07-21_12h44.28.864,2022.1.4,
400,0.5,400,0.5,97,1,13,13,1,97,0,97,1,13,1261.5471591080004,1268.730183646001,1268.730183646001,1268.7268212159997,same,chase50coh_0.5oct3,None,debugging_monitor,mouse,None,"[800, 800]",32,False,255,44100,None,DFF8,NaN,/Users/chase/Downloads/Task_TaxonomyAuditoryMemory-main 5/logs/chase50coh_0.5oct3,2023-07-21_12h44.28.864,2022.1.4,
400,0.5,480,0.5,98,2,13,13,2,98,7,98,2,13,1276.3454693210006,1281.6972209859996,1281.6972209859996,1281.6934164440008,diff,chase50coh_0.5oct3,None,debugging_monitor,mouse,None,"[800, 800]",32,False,255,44100,None,DFF8,NaN,/Users/chase/Downloads/Task_TaxonomyAuditoryMemory-main 5/logs/chase50coh_0.5oct3,2023-07-21_12h44.28.864,2022.1.4,
400,0.5,440,0.5,99,3,13,13,3,99,6,99,3,13,1288.446745700001,1295.2297300139999,1295.2297300139999,1295.2265004689998,diff,chase50coh_0.5oct3,None,debugging_monitor,mouse,None,"[800, 800]",32,False,255,44100,None,DFF8,NaN,/Users/chase/Downloads/Task_TaxonomyAuditoryMemory-main 5/logs/chase50coh_0.5oct3,2023-07-21_12h44.28.864,2022.1.4,
400,0.5,400,0.5,100,4,13,13,4,100,1,100,4,13,1301.7633904119994,1307.1263627730004,1307.1263627730004,1307.1133024539995,same,chase50coh_0.5oct3,None,debugging_monitor,mouse,None,"[800, 800]",32,False,255,44100,None,DFF8,NaN,/Users/chase/Downloads/Task_TaxonomyAuditoryMemory-main 5/logs/chase50coh_0.5oct3,2023-07-21_12h44.28.864,2022.1.4,
400,0.5,410,0.5,101,5,13,13,5,101,4,101,5,13,1315.0634606620006,1320.7465642200004,1320.7465642200004,1320.7429503250005,diff,chase50coh_0.5oct3,None,debugging_monitor,mouse,None,"[800, 800]",32,False,255,44100,None,DFF8,NaN,/Users/chase/Downloads/Task_TaxonomyAuditoryMemory-main 5/logs/chase50coh_0.5oct3,2023-07-21_12h44.28.864,2022.1.4,
400,0.5,400,0.5,102,6,13,13,6,102,2,102,6,13,1327.5298833630004,1332.6125710350007,1332.6125710350007,1332.6094756410002,same,chase50coh_0.5oct3,None,debugging_monitor,mouse,None,"[800, 800]",32,False,255,44100,None,DFF8,NaN,/Users/chase/Downloads/Task_TaxonomyAuditoryMemory-main 5/logs/chase50coh_0.5oct3,2023-07-21_12h44.28.864,2022.1.4,
400,0.5,400,0.5,103,7,13,13,7,103,3,103,7,13,1339.844907656001,1345.8260766639996,1345.8260766639996,1345.8128778530008,same,chase50coh_0.5oct3,None,debugging_monitor,mouse,None,"[800, 800]",32,False,255,44100,None,DFF8,NaN,/Users/chase/Downloads/Task_TaxonomyAuditoryMemory-main 5/logs/chase50coh_0.5oct3,2023-07-21_12h44.28.864,2022.1.4,
400,0.5,410,0.5,104,0,14,14,0,104,4,104,0,14,1352.1466415369996,1357.4926081230005,1357.4926081230005,1357.4795036859996,diff,chase50coh_0.5oct3,None,debugging_monitor,mouse,None,"[800, 800]",32,False,255,44100,None,DFF8,NaN,/Users/chase/Downloads/Task_TaxonomyAuditoryMemory-main 5/logs/chase50coh_0.5oct3,2023-07-21_12h44.28.864,2022.1.4,
400,0.5,480,0.5,105,1,14,14,1,105,7,105,1,14,1363.9961386329996,1369.442431075,1369.442431075,1369.4294375009995,diff,chase50coh_0.5oct3,None,debugging_monitor,mouse,None,"[800, 800]",32,False,255,44100,None,DFF8,NaN,/Users/chase/Downloads/Task_TaxonomyAuditoryMemory-main 5/logs/chase50coh_0.5oct3,2023-07-21_12h44.28.864,2022.1.4,
400,0.5,400,0.5,106,2,14,14,2,106,0,106,2,14,1376.679344657001,1382.0792318229996,1382.0792318229996,1382.075884101001,same,chase50coh_0.5oct3,None,debugging_monitor,mouse,None,"[800, 800]",32,False,255,44100,None,DFF8,NaN,/Users/chase/Downloads/Task_TaxonomyAuditoryMemory-main 5/logs/chase50coh_0.5oct3,2023-07-21_12h44.28.864,2022.1.4,
400,0.5,400,0.5,107,3,14,14,3,107,1,107,3,14,1389.112533079,1394.4124279179996,1394.4124279179996,1394.4090094500007,same,chase50coh_0.5oct3,None,debugging_monitor,mouse,None,"[800, 800]",32,False,255,44100,None,DFF8,NaN,/Users/chase/Downloads/Task_TaxonomyAuditoryMemory-main 5/logs/chase50coh_0.5oct3,2023-07-21_12h44.28.864,2022.1.4,
400,0.5,420,0.5,108,4,14,14,4,108,5,108,4,14,1401.0110681690003,1407.492118614,1407.492118614,1407.4789617019997,same,chase50coh_0.5oct3,None,debugging_monitor,mouse,None,"[800, 800]",32,False,255,44100,None,DFF8,NaN,/Users/chase/Downloads/Task_TaxonomyAuditoryMemory-main 5/logs/chase50coh_0.5oct3,2023-07-21_12h44.28.864,2022.1.4,
400,0.5,440,0.5,109,5,14,14,5,109,6,109,5,14,1415.428970391,1421.695868502,1421.695868502,1421.6920192380003,diff,chase50coh_0.5oct3,None,debugging_monitor,mouse,None,"[800, 800]",32,False,255,44100,None,DFF8,NaN,/Users/chase/Downloads/Task_TaxonomyAuditoryMemory-main 5/logs/chase50coh_0.5oct3,2023-07-21_12h44.28.864,2022.1.4,
400,0.5,400,0.5,110,6,14,14,6,110,3,110,6,14,1428.9942420410007,1435.5251858989996,1435.5251858989996,1435.5121685180002,same,chase50coh_0.5oct3,None,debugging_monitor,mouse,None,"[800, 800]",32,False,255,44100,None,DFF8,NaN,/Users/chase/Downloads/Task_TaxonomyAuditoryMemory-main 5/logs/chase50coh_0.5oct3,2023-07-21_12h44.28.864,2022.1.4,
400,0.5,400,0.5,111,7,14,14,7,111,2,111,7,14,1443.1606696880008,1450.308555902,1450.308555902,1450.2954546740002,same,chase50coh_0.5oct3,None,debugging_monitor,mouse,None,"[800, 800]",32,False,255,44100,None,DFF8,NaN,/Users/chase/Downloads/Task_TaxonomyAuditoryMemory-main 5/logs/chase50coh_0.5oct3,2023-07-21_12h44.28.864,2022.1.4,
400,0.5,400,0.5,112,0,15,15,0,112,0,112,0,15,1457.427215025,1463.2583299910002,1463.2583299910002,1463.2452648350009,same,chase50coh_0.5oct3,None,debugging_monitor,mouse,None,"[800, 800]",32,False,255,44100,None,DFF8,NaN,/Users/chase/Downloads/Task_TaxonomyAuditoryMemory-main 5/logs/chase50coh_0.5oct3,2023-07-21_12h44.28.864,2022.1.4,
400,0.5,400,0.5,113,1,15,15,1,113,3,113,1,15,1469.5628024359994,1476.0582030700007,1476.0582030700007,1476.0452050839995,diff,chase50coh_0.5oct3,None,debugging_monitor,mouse,None,"[800, 800]",32,False,255,44100,None,DFF8,NaN,/Users/chase/Downloads/Task_TaxonomyAuditoryMemory-main 5/logs/chase50coh_0.5oct3,2023-07-21_12h44.28.864,2022.1.4,
400,0.5,400,0.5,114,2,15,15,2,114,1,114,2,15,1482.7599163239993,1488.1914478899998,1488.1914478899998,1488.1786323840006,same,chase50coh_0.5oct3,None,debugging_monitor,mouse,None,"[800, 800]",32,False,255,44100,None,DFF8,NaN,/Users/chase/Downloads/Task_TaxonomyAuditoryMemory-main 5/logs/chase50coh_0.5oct3,2023-07-21_12h44.28.864,2022.1.4,
400,0.5,480,0.5,115,3,15,15,3,115,7,115,3,15,1496.0958798810007,1501.3282555839996,1501.3282555839996,1501.3247477910008,diff,chase50coh_0.5oct3,None,debugging_monitor,mouse,None,"[800, 800]",32,False,255,44100,None,DFF8,NaN,/Users/chase/Downloads/Task_TaxonomyAuditoryMemory-main 5/logs/chase50coh_0.5oct3,2023-07-21_12h44.28.864,2022.1.4,
400,0.5,410,0.5,116,4,15,15,4,116,4,116,4,15,1508.9438014099997,1515.6112831249993,1515.6112831249993,1515.6079529439994,same,chase50coh_0.5oct3,None,debugging_monitor,mouse,None,"[800, 800]",32,False,255,44100,None,DFF8,NaN,/Users/chase/Downloads/Task_TaxonomyAuditoryMemory-main 5/logs/chase50coh_0.5oct3,2023-07-21_12h44.28.864,2022.1.4,
400,0.5,400,0.5,117,5,15,15,5,117,2,117,5,15,1523.1115075920006,1529.0610412250007,1529.0610412250007,1529.057793459,same,chase50coh_0.5oct3,None,debugging_monitor,mouse,None,"[800, 800]",32,False,255,44100,None,DFF8,NaN,/Users/chase/Downloads/Task_TaxonomyAuditoryMemory-main 5/logs/chase50coh_0.5oct3,2023-07-21_12h44.28.864,2022.1.4,
400,0.5,440,0.5,118,6,15,15,6,118,6,118,6,15,1536.5766384079998,1541.757649643001,1541.757649643001,1541.7446086889995,diff,chase50coh_0.5oct3,None,debugging_monitor,mouse,None,"[800, 800]",32,False,255,44100,None,DFF8,NaN,/Users/chase/Downloads/Task_TaxonomyAuditoryMemory-main 5/logs/chase50coh_0.5oct3,2023-07-21_12h44.28.864,2022.1.4,
400,0.5,420,0.5,119,7,15,15,7,119,5,119,7,15,1549.545570538001,1555.1607966880001,1555.1607966880001,1555.157554630001,diff,chase50coh_0.5oct3,None,debugging_monitor,mouse,None,"[800, 800]",32,False,255,44100,None,DFF8,NaN,/Users/chase/Downloads/Task_TaxonomyAuditoryMemory-main 5/logs/chase50coh_0.5oct3,2023-07-21_12h44.28.864,2022.1.4,
