cue_frequency,cue_frequency_range,choice_frequency,choice_frequency_range,thisN,thisTrialN,thisRepN,.thisRepN,.thisTrialN,.thisN,.thisIndex,thisN,thisTrialN,thisRepN,audio_onset,audio_offset,display_feedback,response_time,response,runid,ttl,monitor,responseType,eyetracker,screen_resolution,monitor_width,full_screen,ttl_code,sound_fs,mmb_port_code,pport_port_code,ttl_port,outputDir,date,psychopy_version,
400,0.5,400,0.5,0,0,1,1,0,0,0,0,0,1,35.71190457699413,40.647247862994845,40.647247862994845,40.64355049200094,same,chase50coh_0.5oct_3SecWMdelay_2,None,debugging_monitor,mouse,None,"[800, 800]",32,False,255,44100,None,DFF8,NaN,/Users/chase/Desktop/NKI/Task_TaxonomyAuditoryMemory/logs/chase50coh_0.5oct_3SecWMdelay_2,2023-07-25_14h20.37.102,2022.1.4,
400,0.5,420,0.5,1,1,1,1,1,1,1,1,1,1,47.16195049700036,52.13032651299727,52.13032651299727,52.1271618009996,diff,chase50coh_0.5oct_3SecWMdelay_2,None,debugging_monitor,mouse,None,"[800, 800]",32,False,255,44100,None,DFF8,NaN,/Users/chase/Desktop/NKI/Task_TaxonomyAuditoryMemory/logs/chase50coh_0.5oct_3SecWMdelay_2,2023-07-25_14h20.37.102,2022.1.4,
400,0.5,400,0.5,2,0,2,2,0,2,0,2,0,2,59.82904273699387,64.9969218490005,64.9969218490005,64.99407146299927,same,chase50coh_0.5oct_3SecWMdelay_2,None,debugging_monitor,mouse,None,"[800, 800]",32,False,255,44100,None,DFF8,NaN,/Users/chase/Desktop/NKI/Task_TaxonomyAuditoryMemory/logs/chase50coh_0.5oct_3SecWMdelay_2,2023-07-25_14h20.37.102,2022.1.4,
400,0.5,420,0.5,3,1,2,2,1,3,1,3,1,2,72.59603208799672,80.29762844099605,80.29762844099605,80.29449393899995,diff,chase50coh_0.5oct_3SecWMdelay_2,None,debugging_monitor,mouse,None,"[800, 800]",32,False,255,44100,None,DFF8,NaN,/Users/chase/Desktop/NKI/Task_TaxonomyAuditoryMemory/logs/chase50coh_0.5oct_3SecWMdelay_2,2023-07-25_14h20.37.102,2022.1.4,
400,0.5,400,0.5,4,0,3,3,0,4,0,4,0,3,88.16300169999886,95.21292006799922,95.21292006799922,95.21000336099678,same,chase50coh_0.5oct_3SecWMdelay_2,None,debugging_monitor,mouse,None,"[800, 800]",32,False,255,44100,None,DFF8,NaN,/Users/chase/Desktop/NKI/Task_TaxonomyAuditoryMemory/logs/chase50coh_0.5oct_3SecWMdelay_2,2023-07-25_14h20.37.102,2022.1.4,
400,0.5,420,0.5,5,1,3,3,1,5,1,5,1,3,102.53023624699563,108.16512361000059,108.16512361000059,108.16178982299607,diff,chase50coh_0.5oct_3SecWMdelay_2,None,debugging_monitor,mouse,None,"[800, 800]",32,False,255,44100,None,DFF8,NaN,/Users/chase/Desktop/NKI/Task_TaxonomyAuditoryMemory/logs/chase50coh_0.5oct_3SecWMdelay_2,2023-07-25_14h20.37.102,2022.1.4,
400,0.5,420,0.5,6,0,4,4,0,6,1,6,0,4,116.17991022999922,122.01288932199532,122.01288932199532,122.01032829699398,diff,chase50coh_0.5oct_3SecWMdelay_2,None,debugging_monitor,mouse,None,"[800, 800]",32,False,255,44100,None,DFF8,NaN,/Users/chase/Desktop/NKI/Task_TaxonomyAuditoryMemory/logs/chase50coh_0.5oct_3SecWMdelay_2,2023-07-25_14h20.37.102,2022.1.4,
400,0.5,400,0.5,7,1,4,4,1,7,0,7,1,4,129.64670771799865,135.2653066329949,135.2653066329949,135.2620349159988,same,chase50coh_0.5oct_3SecWMdelay_2,None,debugging_monitor,mouse,None,"[800, 800]",32,False,255,44100,None,DFF8,NaN,/Users/chase/Desktop/NKI/Task_TaxonomyAuditoryMemory/logs/chase50coh_0.5oct_3SecWMdelay_2,2023-07-25_14h20.37.102,2022.1.4,
400,0.5,400,0.5,8,0,5,5,0,8,0,8,0,5,141.7304507499939,147.14888954599883,147.14888954599883,147.14569537699572,same,chase50coh_0.5oct_3SecWMdelay_2,None,debugging_monitor,mouse,None,"[800, 800]",32,False,255,44100,None,DFF8,NaN,/Users/chase/Desktop/NKI/Task_TaxonomyAuditoryMemory/logs/chase50coh_0.5oct_3SecWMdelay_2,2023-07-25_14h20.37.102,2022.1.4,
400,0.5,420,0.5,9,1,5,5,1,9,1,9,1,5,153.21426166199672,159.04894631099887,159.04894631099887,159.04591325899673,diff,chase50coh_0.5oct_3SecWMdelay_2,None,debugging_monitor,mouse,None,"[800, 800]",32,False,255,44100,None,DFF8,NaN,/Users/chase/Desktop/NKI/Task_TaxonomyAuditoryMemory/logs/chase50coh_0.5oct_3SecWMdelay_2,2023-07-25_14h20.37.102,2022.1.4,
400,0.5,420,0.5,10,0,6,6,0,10,1,10,0,6,165.38090516800003,171.13019943499967,171.13019943499967,171.12789244399755,diff,chase50coh_0.5oct_3SecWMdelay_2,None,debugging_monitor,mouse,None,"[800, 800]",32,False,255,44100,None,DFF8,NaN,/Users/chase/Desktop/NKI/Task_TaxonomyAuditoryMemory/logs/chase50coh_0.5oct_3SecWMdelay_2,2023-07-25_14h20.37.102,2022.1.4,
400,0.5,400,0.5,11,1,6,6,1,11,0,11,1,6,177.69761524500063,183.0806825999971,183.0806825999971,183.07817161399726,same,chase50coh_0.5oct_3SecWMdelay_2,None,debugging_monitor,mouse,None,"[800, 800]",32,False,255,44100,None,DFF8,NaN,/Users/chase/Desktop/NKI/Task_TaxonomyAuditoryMemory/logs/chase50coh_0.5oct_3SecWMdelay_2,2023-07-25_14h20.37.102,2022.1.4,
400,0.5,420,0.5,12,0,7,7,0,12,1,12,0,7,189.4480720089996,194.9616373769968,194.9616373769968,194.94918040299672,diff,chase50coh_0.5oct_3SecWMdelay_2,None,debugging_monitor,mouse,None,"[800, 800]",32,False,255,44100,None,DFF8,NaN,/Users/chase/Desktop/NKI/Task_TaxonomyAuditoryMemory/logs/chase50coh_0.5oct_3SecWMdelay_2,2023-07-25_14h20.37.102,2022.1.4,
400,0.5,400,0.5,13,1,7,7,1,13,0,13,1,7,202.44517709399952,209.11519793299522,209.11519793299522,209.11199350199604,same,chase50coh_0.5oct_3SecWMdelay_2,None,debugging_monitor,mouse,None,"[800, 800]",32,False,255,44100,None,DFF8,NaN,/Users/chase/Desktop/NKI/Task_TaxonomyAuditoryMemory/logs/chase50coh_0.5oct_3SecWMdelay_2,2023-07-25_14h20.37.102,2022.1.4,
400,0.5,420,0.5,14,0,8,8,0,14,1,14,0,8,215.63004995999654,220.8173975259997,220.8173975259997,220.81360955899436,diff,chase50coh_0.5oct_3SecWMdelay_2,None,debugging_monitor,mouse,None,"[800, 800]",32,False,255,44100,None,DFF8,NaN,/Users/chase/Desktop/NKI/Task_TaxonomyAuditoryMemory/logs/chase50coh_0.5oct_3SecWMdelay_2,2023-07-25_14h20.37.102,2022.1.4,
400,0.5,400,0.5,15,1,8,8,1,15,0,15,1,8,227.4483358180005,232.76220401799947,232.76220401799947,232.75005145699834,same,chase50coh_0.5oct_3SecWMdelay_2,None,debugging_monitor,mouse,None,"[800, 800]",32,False,255,44100,None,DFF8,NaN,/Users/chase/Desktop/NKI/Task_TaxonomyAuditoryMemory/logs/chase50coh_0.5oct_3SecWMdelay_2,2023-07-25_14h20.37.102,2022.1.4,
400,0.5,420,0.5,16,0,9,9,0,16,1,16,0,9,240.13221633699868,245.4625346219982,245.4625346219982,245.4500893209988,diff,chase50coh_0.5oct_3SecWMdelay_2,None,debugging_monitor,mouse,None,"[800, 800]",32,False,255,44100,None,DFF8,NaN,/Users/chase/Desktop/NKI/Task_TaxonomyAuditoryMemory/logs/chase50coh_0.5oct_3SecWMdelay_2,2023-07-25_14h20.37.102,2022.1.4,
400,0.5,400,0.5,17,1,9,9,1,17,0,17,1,9,252.66581867499917,258.66269959799683,258.66269959799683,258.6501491089948,same,chase50coh_0.5oct_3SecWMdelay_2,None,debugging_monitor,mouse,None,"[800, 800]",32,False,255,44100,None,DFF8,NaN,/Users/chase/Desktop/NKI/Task_TaxonomyAuditoryMemory/logs/chase50coh_0.5oct_3SecWMdelay_2,2023-07-25_14h20.37.102,2022.1.4,
400,0.5,400,0.5,18,0,10,10,0,18,0,18,0,10,266.46583962699515,272.2510074249949,272.2510074249949,272.24791144299525,same,chase50coh_0.5oct_3SecWMdelay_2,None,debugging_monitor,mouse,None,"[800, 800]",32,False,255,44100,None,DFF8,NaN,/Users/chase/Desktop/NKI/Task_TaxonomyAuditoryMemory/logs/chase50coh_0.5oct_3SecWMdelay_2,2023-07-25_14h20.37.102,2022.1.4,
400,0.5,420,0.5,19,1,10,10,1,19,1,19,1,10,280.0663459759962,285.61307464499987,285.61307464499987,285.6006783249977,diff,chase50coh_0.5oct_3SecWMdelay_2,None,debugging_monitor,mouse,None,"[800, 800]",32,False,255,44100,None,DFF8,NaN,/Users/chase/Desktop/NKI/Task_TaxonomyAuditoryMemory/logs/chase50coh_0.5oct_3SecWMdelay_2,2023-07-25_14h20.37.102,2022.1.4,
400,0.5,420,0.5,20,0,11,11,0,20,1,20,0,11,293.44958889699774,299.6299929079978,299.6299929079978,299.61779861899413,same,chase50coh_0.5oct_3SecWMdelay_2,None,debugging_monitor,mouse,None,"[800, 800]",32,False,255,44100,None,DFF8,NaN,/Users/chase/Desktop/NKI/Task_TaxonomyAuditoryMemory/logs/chase50coh_0.5oct_3SecWMdelay_2,2023-07-25_14h20.37.102,2022.1.4,
400,0.5,400,0.5,21,1,11,11,1,21,0,21,1,11,305.74982413499674,312.0825602469995,312.0825602469995,312.080149399997,same,chase50coh_0.5oct_3SecWMdelay_2,None,debugging_monitor,mouse,None,"[800, 800]",32,False,255,44100,None,DFF8,NaN,/Users/chase/Desktop/NKI/Task_TaxonomyAuditoryMemory/logs/chase50coh_0.5oct_3SecWMdelay_2,2023-07-25_14h20.37.102,2022.1.4,
400,0.5,400,0.5,22,0,12,12,0,22,0,22,0,12,319.4333934269962,325.88542792099906,325.88542792099906,325.88225460199465,same,chase50coh_0.5oct_3SecWMdelay_2,None,debugging_monitor,mouse,None,"[800, 800]",32,False,255,44100,None,DFF8,NaN,/Users/chase/Desktop/NKI/Task_TaxonomyAuditoryMemory/logs/chase50coh_0.5oct_3SecWMdelay_2,2023-07-25_14h20.37.102,2022.1.4,
400,0.5,420,0.5,23,1,12,12,1,23,1,23,1,12,332.00052964899805,337.3836017770009,337.3836017770009,337.3807736469971,diff,chase50coh_0.5oct_3SecWMdelay_2,None,debugging_monitor,mouse,None,"[800, 800]",32,False,255,44100,None,DFF8,NaN,/Users/chase/Desktop/NKI/Task_TaxonomyAuditoryMemory/logs/chase50coh_0.5oct_3SecWMdelay_2,2023-07-25_14h20.37.102,2022.1.4,
400,0.5,420,0.5,24,0,13,13,0,24,1,24,0,13,344.5171983819964,350.81436020799447,350.81436020799447,350.80200093500025,diff,chase50coh_0.5oct_3SecWMdelay_2,None,debugging_monitor,mouse,None,"[800, 800]",32,False,255,44100,None,DFF8,NaN,/Users/chase/Desktop/NKI/Task_TaxonomyAuditoryMemory/logs/chase50coh_0.5oct_3SecWMdelay_2,2023-07-25_14h20.37.102,2022.1.4,
400,0.5,400,0.5,25,1,13,13,1,25,0,25,1,13,357.3340379809961,363.05020936099754,363.05020936099754,363.04772434999904,diff,chase50coh_0.5oct_3SecWMdelay_2,None,debugging_monitor,mouse,None,"[800, 800]",32,False,255,44100,None,DFF8,NaN,/Users/chase/Desktop/NKI/Task_TaxonomyAuditoryMemory/logs/chase50coh_0.5oct_3SecWMdelay_2,2023-07-25_14h20.37.102,2022.1.4,
400,0.5,400,0.5,26,0,14,14,0,26,0,26,0,14,370.5008305289957,377.1340312350003,377.1340312350003,377.13135333999526,same,chase50coh_0.5oct_3SecWMdelay_2,None,debugging_monitor,mouse,None,"[800, 800]",32,False,255,44100,None,DFF8,NaN,/Users/chase/Desktop/NKI/Task_TaxonomyAuditoryMemory/logs/chase50coh_0.5oct_3SecWMdelay_2,2023-07-25_14h20.37.102,2022.1.4,
400,0.5,420,0.5,27,1,14,14,1,27,1,27,1,14,383.8344020069999,389.6195179149945,389.6195179149945,389.6164037759954,diff,chase50coh_0.5oct_3SecWMdelay_2,None,debugging_monitor,mouse,None,"[800, 800]",32,False,255,44100,None,DFF8,NaN,/Users/chase/Desktop/NKI/Task_TaxonomyAuditoryMemory/logs/chase50coh_0.5oct_3SecWMdelay_2,2023-07-25_14h20.37.102,2022.1.4,
400,0.5,420,0.5,28,0,15,15,0,28,1,28,0,15,396.7015660249963,401.96504009899945,401.96504009899945,401.9527003330004,diff,chase50coh_0.5oct_3SecWMdelay_2,None,debugging_monitor,mouse,None,"[800, 800]",32,False,255,44100,None,DFF8,NaN,/Users/chase/Desktop/NKI/Task_TaxonomyAuditoryMemory/logs/chase50coh_0.5oct_3SecWMdelay_2,2023-07-25_14h20.37.102,2022.1.4,
400,0.5,400,0.5,29,1,15,15,1,29,0,29,1,15,408.4183664039956,414.4179122629939,414.4179122629939,414.4151945009944,same,chase50coh_0.5oct_3SecWMdelay_2,None,debugging_monitor,mouse,None,"[800, 800]",32,False,255,44100,None,DFF8,NaN,/Users/chase/Desktop/NKI/Task_TaxonomyAuditoryMemory/logs/chase50coh_0.5oct_3SecWMdelay_2,2023-07-25_14h20.37.102,2022.1.4,
