cue_frequency,cue_frequency_range,choice_frequency,choice_frequency_range,thisN,thisTrialN,thisRepN,.thisRepN,.thisTrialN,.thisN,.thisIndex,thisN,thisTrialN,thisRepN,audio_onset,audio_offset,display_feedback,response_time,response,runid,ttl,monitor,responseType,eyetracker,screen_resolution,monitor_width,full_screen,ttl_code,sound_fs,mmb_port_code,pport_port_code,ttl_port,outputDir,date,psychopy_version,
400,0.5,400,0.5,0,0,1,1,0,0,0,0,0,1,30.463641644004383,37.68030488500517,37.68030488500517,37.67735903700668,same,chase50coh_0.5oct_halfSecWMdelay,None,debugging_monitor,mouse,None,"[800, 800]",32,False,255,44100,None,DFF8,NaN,/Users/chase/Desktop/NKI/Task_TaxonomyAuditoryMemory/logs/chase50coh_0.5oct_halfSecWMdelay,2023-07-25_14h12.59.299,2022.1.4,
400,0.5,420,0.5,1,1,1,1,1,1,1,1,1,1,44.91374043000542,48.07745633400191,48.07745633400191,48.06502155700582,diff,chase50coh_0.5oct_halfSecWMdelay,None,debugging_monitor,mouse,None,"[800, 800]",32,False,255,44100,None,DFF8,NaN,/Users/chase/Desktop/NKI/Task_TaxonomyAuditoryMemory/logs/chase50coh_0.5oct_halfSecWMdelay,2023-07-25_14h12.59.299,2022.1.4,
400,0.5,400,0.5,2,0,2,2,0,2,0,2,0,2,55.21397046900529,59.17769898300321,59.17769898300321,59.16533735000121,same,chase50coh_0.5oct_halfSecWMdelay,None,debugging_monitor,mouse,None,"[800, 800]",32,False,255,44100,None,DFF8,NaN,/Users/chase/Desktop/NKI/Task_TaxonomyAuditoryMemory/logs/chase50coh_0.5oct_halfSecWMdelay,2023-07-25_14h12.59.299,2022.1.4,
400,0.5,420,0.5,3,1,2,2,1,3,1,3,1,2,66.13080692700169,68.88082913800463,68.88082913800463,68.87788318400271,diff,chase50coh_0.5oct_halfSecWMdelay,None,debugging_monitor,mouse,None,"[800, 800]",32,False,255,44100,None,DFF8,NaN,/Users/chase/Desktop/NKI/Task_TaxonomyAuditoryMemory/logs/chase50coh_0.5oct_halfSecWMdelay,2023-07-25_14h12.59.299,2022.1.4,
400,0.5,400,0.5,4,0,3,3,0,4,0,4,0,3,76.4961432400014,79.74746051500551,79.74746051500551,79.74478594900575,same,chase50coh_0.5oct_halfSecWMdelay,None,debugging_monitor,mouse,None,"[800, 800]",32,False,255,44100,None,DFF8,NaN,/Users/chase/Desktop/NKI/Task_TaxonomyAuditoryMemory/logs/chase50coh_0.5oct_halfSecWMdelay,2023-07-25_14h12.59.299,2022.1.4,
400,0.5,420,0.5,5,1,3,3,1,5,1,5,1,3,86.49800870699983,89.01147213100194,89.01147213100194,88.99944512900402,diff,chase50coh_0.5oct_halfSecWMdelay,None,debugging_monitor,mouse,None,"[800, 800]",32,False,255,44100,None,DFF8,NaN,/Users/chase/Desktop/NKI/Task_TaxonomyAuditoryMemory/logs/chase50coh_0.5oct_halfSecWMdelay,2023-07-25_14h12.59.299,2022.1.4,
400,0.5,400,0.5,6,0,4,4,0,6,0,6,0,4,95.26466135300143,97.69492935700691,97.69492935700691,97.68272661200172,same,chase50coh_0.5oct_halfSecWMdelay,None,debugging_monitor,mouse,None,"[800, 800]",32,False,255,44100,None,DFF8,NaN,/Users/chase/Desktop/NKI/Task_TaxonomyAuditoryMemory/logs/chase50coh_0.5oct_halfSecWMdelay,2023-07-25_14h12.59.299,2022.1.4,
400,0.5,420,0.5,7,1,4,4,1,7,1,7,1,4,105.26519277000625,107.91643254800147,107.91643254800147,107.9131968990041,diff,chase50coh_0.5oct_halfSecWMdelay,None,debugging_monitor,mouse,None,"[800, 800]",32,False,255,44100,None,DFF8,NaN,/Users/chase/Desktop/NKI/Task_TaxonomyAuditoryMemory/logs/chase50coh_0.5oct_halfSecWMdelay,2023-07-25_14h12.59.299,2022.1.4,
400,0.5,420,0.5,8,0,5,5,0,8,1,8,0,5,115.43150756100658,119.1785894870045,119.1785894870045,119.1662468160066,diff,chase50coh_0.5oct_halfSecWMdelay,None,debugging_monitor,mouse,None,"[800, 800]",32,False,255,44100,None,DFF8,NaN,/Users/chase/Desktop/NKI/Task_TaxonomyAuditoryMemory/logs/chase50coh_0.5oct_halfSecWMdelay,2023-07-25_14h12.59.299,2022.1.4,
400,0.5,400,0.5,9,1,5,5,1,9,0,9,1,5,126.23190501600038,128.8835382000034,128.8835382000034,128.88016719800362,same,chase50coh_0.5oct_halfSecWMdelay,None,debugging_monitor,mouse,None,"[800, 800]",32,False,255,44100,None,DFF8,NaN,/Users/chase/Desktop/NKI/Task_TaxonomyAuditoryMemory/logs/chase50coh_0.5oct_halfSecWMdelay,2023-07-25_14h12.59.299,2022.1.4,
400,0.5,400,0.5,10,0,6,6,0,10,0,10,0,6,136.13199948100373,138.66209711500414,138.66209711500414,138.64992743600305,same,chase50coh_0.5oct_halfSecWMdelay,None,debugging_monitor,mouse,None,"[800, 800]",32,False,255,44100,None,DFF8,NaN,/Users/chase/Desktop/NKI/Task_TaxonomyAuditoryMemory/logs/chase50coh_0.5oct_halfSecWMdelay,2023-07-25_14h12.59.299,2022.1.4,
400,0.5,420,0.5,11,1,6,6,1,11,1,11,1,6,145.88211474100535,148.6482275810049,148.6482275810049,148.64554333700653,diff,chase50coh_0.5oct_halfSecWMdelay,None,debugging_monitor,mouse,None,"[800, 800]",32,False,255,44100,None,DFF8,NaN,/Users/chase/Desktop/NKI/Task_TaxonomyAuditoryMemory/logs/chase50coh_0.5oct_halfSecWMdelay,2023-07-25_14h12.59.299,2022.1.4,
400,0.5,420,0.5,12,0,7,7,0,12,1,12,0,7,156.46539919100178,159.36773007800366,159.36773007800366,159.36414432800666,diff,chase50coh_0.5oct_halfSecWMdelay,None,debugging_monitor,mouse,None,"[800, 800]",32,False,255,44100,None,DFF8,NaN,/Users/chase/Desktop/NKI/Task_TaxonomyAuditoryMemory/logs/chase50coh_0.5oct_halfSecWMdelay,2023-07-25_14h12.59.299,2022.1.4,
400,0.5,400,0.5,13,1,7,7,1,13,0,13,1,7,165.41570674400282,168.31247654700564,168.31247654700564,168.30013158700604,same,chase50coh_0.5oct_halfSecWMdelay,None,debugging_monitor,mouse,None,"[800, 800]",32,False,255,44100,None,DFF8,NaN,/Users/chase/Desktop/NKI/Task_TaxonomyAuditoryMemory/logs/chase50coh_0.5oct_halfSecWMdelay,2023-07-25_14h12.59.299,2022.1.4,
400,0.5,400,0.5,14,0,8,8,0,14,0,14,0,8,176.24926419600524,178.94605462700565,178.94605462700565,178.9339356440032,same,chase50coh_0.5oct_halfSecWMdelay,None,debugging_monitor,mouse,None,"[800, 800]",32,False,255,44100,None,DFF8,NaN,/Users/chase/Desktop/NKI/Task_TaxonomyAuditoryMemory/logs/chase50coh_0.5oct_halfSecWMdelay,2023-07-25_14h12.59.299,2022.1.4,
400,0.5,420,0.5,15,1,8,8,1,15,1,15,1,8,186.6992957560069,189.26546882600087,189.26546882600087,189.26284210599988,diff,chase50coh_0.5oct_halfSecWMdelay,None,debugging_monitor,mouse,None,"[800, 800]",32,False,255,44100,None,DFF8,NaN,/Users/chase/Desktop/NKI/Task_TaxonomyAuditoryMemory/logs/chase50coh_0.5oct_halfSecWMdelay,2023-07-25_14h12.59.299,2022.1.4,
400,0.5,400,0.5,16,0,9,9,0,16,0,16,0,9,197.26598819100036,200.79626372600615,200.79626372600615,200.78408637500252,same,chase50coh_0.5oct_halfSecWMdelay,None,debugging_monitor,mouse,None,"[800, 800]",32,False,255,44100,None,DFF8,NaN,/Users/chase/Desktop/NKI/Task_TaxonomyAuditoryMemory/logs/chase50coh_0.5oct_halfSecWMdelay,2023-07-25_14h12.59.299,2022.1.4,
400,0.5,420,0.5,17,1,9,9,1,17,1,17,1,9,207.0827561200058,209.69906931400328,209.69906931400328,209.69636012600677,diff,chase50coh_0.5oct_halfSecWMdelay,None,debugging_monitor,mouse,None,"[800, 800]",32,False,255,44100,None,DFF8,NaN,/Users/chase/Desktop/NKI/Task_TaxonomyAuditoryMemory/logs/chase50coh_0.5oct_halfSecWMdelay,2023-07-25_14h12.59.299,2022.1.4,
400,0.5,400,0.5,18,0,10,10,0,18,0,18,0,10,215.99977178600238,219.28000389400404,219.28000389400404,219.26771301600093,same,chase50coh_0.5oct_halfSecWMdelay,None,debugging_monitor,mouse,None,"[800, 800]",32,False,255,44100,None,DFF8,NaN,/Users/chase/Desktop/NKI/Task_TaxonomyAuditoryMemory/logs/chase50coh_0.5oct_halfSecWMdelay,2023-07-25_14h12.59.299,2022.1.4,
400,0.5,420,0.5,19,1,10,10,1,19,1,19,1,10,225.84970258100657,228.67995234200498,228.67995234200498,228.6677733070028,diff,chase50coh_0.5oct_halfSecWMdelay,None,debugging_monitor,mouse,None,"[800, 800]",32,False,255,44100,None,DFF8,NaN,/Users/chase/Desktop/NKI/Task_TaxonomyAuditoryMemory/logs/chase50coh_0.5oct_halfSecWMdelay,2023-07-25_14h12.59.299,2022.1.4,
400,0.5,400,0.5,20,0,11,11,0,20,0,20,0,11,235.16634686900215,237.96820919600577,237.96820919600577,237.9651125340024,same,chase50coh_0.5oct_halfSecWMdelay,None,debugging_monitor,mouse,None,"[800, 800]",32,False,255,44100,None,DFF8,NaN,/Users/chase/Desktop/NKI/Task_TaxonomyAuditoryMemory/logs/chase50coh_0.5oct_halfSecWMdelay,2023-07-25_14h12.59.299,2022.1.4,
400,0.5,420,0.5,21,1,11,11,1,21,1,21,1,11,245.81522809800663,248.34943781400216,248.34943781400216,248.34695422000368,diff,chase50coh_0.5oct_halfSecWMdelay,None,debugging_monitor,mouse,None,"[800, 800]",32,False,255,44100,None,DFF8,NaN,/Users/chase/Desktop/NKI/Task_TaxonomyAuditoryMemory/logs/chase50coh_0.5oct_halfSecWMdelay,2023-07-25_14h12.59.299,2022.1.4,
400,0.5,400,0.5,22,0,12,12,0,22,0,22,0,12,255.3169282010058,258.013701914002,258.013701914002,258.0013409670064,same,chase50coh_0.5oct_halfSecWMdelay,None,debugging_monitor,mouse,None,"[800, 800]",32,False,255,44100,None,DFF8,NaN,/Users/chase/Desktop/NKI/Task_TaxonomyAuditoryMemory/logs/chase50coh_0.5oct_halfSecWMdelay,2023-07-25_14h12.59.299,2022.1.4,
400,0.5,420,0.5,23,1,12,12,1,23,1,23,1,12,265.8836357420005,268.3805322970002,268.3805322970002,268.3683430070014,diff,chase50coh_0.5oct_halfSecWMdelay,None,debugging_monitor,mouse,None,"[800, 800]",32,False,255,44100,None,DFF8,NaN,/Users/chase/Desktop/NKI/Task_TaxonomyAuditoryMemory/logs/chase50coh_0.5oct_halfSecWMdelay,2023-07-25_14h12.59.299,2022.1.4,
400,0.5,400,0.5,24,0,13,13,0,24,0,24,0,13,274.8669373640005,277.63576408600056,277.63576408600056,277.6323795480057,same,chase50coh_0.5oct_halfSecWMdelay,None,debugging_monitor,mouse,None,"[800, 800]",32,False,255,44100,None,DFF8,NaN,/Users/chase/Desktop/NKI/Task_TaxonomyAuditoryMemory/logs/chase50coh_0.5oct_halfSecWMdelay,2023-07-25_14h12.59.299,2022.1.4,
400,0.5,420,0.5,25,1,13,13,1,25,1,25,1,13,285.35061602100177,288.964144262005,288.964144262005,288.9518008100058,diff,chase50coh_0.5oct_halfSecWMdelay,None,debugging_monitor,mouse,None,"[800, 800]",32,False,255,44100,None,DFF8,NaN,/Users/chase/Desktop/NKI/Task_TaxonomyAuditoryMemory/logs/chase50coh_0.5oct_halfSecWMdelay,2023-07-25_14h12.59.299,2022.1.4,
400,0.5,400,0.5,26,0,14,14,0,26,0,26,0,14,295.8173313170046,298.28095624500565,298.28095624500565,298.2686620490058,same,chase50coh_0.5oct_halfSecWMdelay,None,debugging_monitor,mouse,None,"[800, 800]",32,False,255,44100,None,DFF8,NaN,/Users/chase/Desktop/NKI/Task_TaxonomyAuditoryMemory/logs/chase50coh_0.5oct_halfSecWMdelay,2023-07-25_14h12.59.299,2022.1.4,
400,0.5,420,0.5,27,1,14,14,1,27,1,27,1,14,305.80107891700027,308.3478079810011,308.3478079810011,308.33522215200355,diff,chase50coh_0.5oct_halfSecWMdelay,None,debugging_monitor,mouse,None,"[800, 800]",32,False,255,44100,None,DFF8,NaN,/Users/chase/Desktop/NKI/Task_TaxonomyAuditoryMemory/logs/chase50coh_0.5oct_halfSecWMdelay,2023-07-25_14h12.59.299,2022.1.4,
400,0.5,400,0.5,28,0,15,15,0,28,0,28,0,15,315.11755449500197,317.5479175340006,317.5479175340006,317.53559615800623,same,chase50coh_0.5oct_halfSecWMdelay,None,debugging_monitor,mouse,None,"[800, 800]",32,False,255,44100,None,DFF8,NaN,/Users/chase/Desktop/NKI/Task_TaxonomyAuditoryMemory/logs/chase50coh_0.5oct_halfSecWMdelay,2023-07-25_14h12.59.299,2022.1.4,
400,0.5,420,0.5,29,1,15,15,1,29,1,29,1,15,324.78445530700264,327.298099394,327.298099394,327.2856901080013,diff,chase50coh_0.5oct_halfSecWMdelay,None,debugging_monitor,mouse,None,"[800, 800]",32,False,255,44100,None,DFF8,NaN,/Users/chase/Desktop/NKI/Task_TaxonomyAuditoryMemory/logs/chase50coh_0.5oct_halfSecWMdelay,2023-07-25_14h12.59.299,2022.1.4,
