cue_frequency,cue_frequency_range,choice_frequency,choice_frequency_range,thisN,thisTrialN,thisRepN,.thisRepN,.thisTrialN,.thisN,.thisIndex,thisN,thisTrialN,thisRepN,audio_onset,audio_offset,display_feedback,response_time,response,runid,ttl,monitor,responseType,eyetracker,screen_resolution,monitor_width,full_screen,ttl_code,sound_fs,mmb_port_code,pport_port_code,ttl_port,outputDir,date,psychopy_version,
400,0.5,400,0.5,0,0,1,1,0,0,0,0,0,1,42.893512066002586,48.2448278640004,48.2448278640004,48.239935060999414,same,chase50coh_0.5oct_3sWMdelay,None,debugging_monitor,mouse,None,"[800, 800]",32,False,255,44100,None,DFF8,NaN,/Users/chase/Desktop/NKI/Task_TaxonomyAuditoryMemory/logs/chase50coh_0.5oct_3sWMdelay,2023-07-25_12h12.40.252,2022.1.4,
400,0.5,420,0.5,1,1,1,1,1,1,1,1,1,1,54.52736954199645,59.92656922199967,59.92656922199967,59.923304982003174,diff,chase50coh_0.5oct_3sWMdelay,None,debugging_monitor,mouse,None,"[800, 800]",32,False,255,44100,None,DFF8,NaN,/Users/chase/Desktop/NKI/Task_TaxonomyAuditoryMemory/logs/chase50coh_0.5oct_3sWMdelay,2023-07-25_12h12.40.252,2022.1.4,
400,0.5,400,0.5,2,0,2,2,0,2,0,2,0,2,66.442030719998,71.44297769499826,71.44297769499826,71.43981961400277,same,chase50coh_0.5oct_3sWMdelay,None,debugging_monitor,mouse,None,"[800, 800]",32,False,255,44100,None,DFF8,NaN,/Users/chase/Desktop/NKI/Task_TaxonomyAuditoryMemory/logs/chase50coh_0.5oct_3sWMdelay,2023-07-25_12h12.40.252,2022.1.4,
400,0.5,420,0.5,3,1,2,2,1,3,1,3,1,2,77.74154464699677,82.72314424400247,82.72314424400247,82.71105034399807,diff,chase50coh_0.5oct_3sWMdelay,None,debugging_monitor,mouse,None,"[800, 800]",32,False,255,44100,None,DFF8,NaN,/Users/chase/Desktop/NKI/Task_TaxonomyAuditoryMemory/logs/chase50coh_0.5oct_3sWMdelay,2023-07-25_12h12.40.252,2022.1.4,
400,0.5,400,0.5,4,0,3,3,0,4,0,4,0,3,89.38971134700114,94.92680473699875,94.92680473699875,94.92308275600226,same,chase50coh_0.5oct_3sWMdelay,None,debugging_monitor,mouse,None,"[800, 800]",32,False,255,44100,None,DFF8,NaN,/Users/chase/Desktop/NKI/Task_TaxonomyAuditoryMemory/logs/chase50coh_0.5oct_3sWMdelay,2023-07-25_12h12.40.252,2022.1.4,
400,0.5,420,0.5,5,1,3,3,1,5,1,5,1,3,101.97706091599684,107.51032990300155,107.51032990300155,107.50623315700068,same,chase50coh_0.5oct_3sWMdelay,None,debugging_monitor,mouse,None,"[800, 800]",32,False,255,44100,None,DFF8,NaN,/Users/chase/Desktop/NKI/Task_TaxonomyAuditoryMemory/logs/chase50coh_0.5oct_3sWMdelay,2023-07-25_12h12.40.252,2022.1.4,
400,0.5,420,0.5,6,0,4,4,0,6,1,6,0,4,114.10953306999727,119.42576249800186,119.42576249800186,119.42278304800129,diff,chase50coh_0.5oct_3sWMdelay,None,debugging_monitor,mouse,None,"[800, 800]",32,False,255,44100,None,DFF8,NaN,/Users/chase/Desktop/NKI/Task_TaxonomyAuditoryMemory/logs/chase50coh_0.5oct_3sWMdelay,2023-07-25_12h12.40.252,2022.1.4,
400,0.5,400,0.5,7,1,4,4,1,7,0,7,1,4,125.74154746300337,131.1262954670019,131.1262954670019,131.12281032899773,same,chase50coh_0.5oct_3sWMdelay,None,debugging_monitor,mouse,None,"[800, 800]",32,False,255,44100,None,DFF8,NaN,/Users/chase/Desktop/NKI/Task_TaxonomyAuditoryMemory/logs/chase50coh_0.5oct_3sWMdelay,2023-07-25_12h12.40.252,2022.1.4,
400,0.5,420,0.5,8,0,5,5,0,8,1,8,0,5,138.15945454999746,144.25878996199754,144.25878996199754,144.25583252900105,same,chase50coh_0.5oct_3sWMdelay,None,debugging_monitor,mouse,None,"[800, 800]",32,False,255,44100,None,DFF8,NaN,/Users/chase/Desktop/NKI/Task_TaxonomyAuditoryMemory/logs/chase50coh_0.5oct_3sWMdelay,2023-07-25_12h12.40.252,2022.1.4,
400,0.5,400,0.5,9,1,5,5,1,9,0,9,1,5,151.33918550700037,156.5085423950004,156.5085423950004,156.50570987600076,same,chase50coh_0.5oct_3sWMdelay,None,debugging_monitor,mouse,None,"[800, 800]",32,False,255,44100,None,DFF8,NaN,/Users/chase/Desktop/NKI/Task_TaxonomyAuditoryMemory/logs/chase50coh_0.5oct_3sWMdelay,2023-07-25_12h12.40.252,2022.1.4,
400,0.5,400,0.5,10,0,6,6,0,10,0,10,0,6,164.1592072679996,169.10869745499804,169.10869745499804,169.1057160950004,same,chase50coh_0.5oct_3sWMdelay,None,debugging_monitor,mouse,None,"[800, 800]",32,False,255,44100,None,DFF8,NaN,/Users/chase/Desktop/NKI/Task_TaxonomyAuditoryMemory/logs/chase50coh_0.5oct_3sWMdelay,2023-07-25_12h12.40.252,2022.1.4,
400,0.5,420,0.5,11,1,6,6,1,11,1,11,1,6,175.688900688001,181.8920005159962,181.8920005159962,181.88883005899697,same,chase50coh_0.5oct_3sWMdelay,None,debugging_monitor,mouse,None,"[800, 800]",32,False,255,44100,None,DFF8,NaN,/Users/chase/Desktop/NKI/Task_TaxonomyAuditoryMemory/logs/chase50coh_0.5oct_3sWMdelay,2023-07-25_12h12.40.252,2022.1.4,
400,0.5,420,0.5,12,0,7,7,0,12,1,12,0,7,188.83699160299875,195.97494311899936,195.97494311899936,195.97200967700337,diff,chase50coh_0.5oct_3sWMdelay,None,debugging_monitor,mouse,None,"[800, 800]",32,False,255,44100,None,DFF8,NaN,/Users/chase/Desktop/NKI/Task_TaxonomyAuditoryMemory/logs/chase50coh_0.5oct_3sWMdelay,2023-07-25_12h12.40.252,2022.1.4,
400,0.5,400,0.5,13,1,7,7,1,13,0,13,1,7,202.0088282739962,207.17540039699816,207.17540039699816,207.17191893899872,same,chase50coh_0.5oct_3sWMdelay,None,debugging_monitor,mouse,None,"[800, 800]",32,False,255,44100,None,DFF8,NaN,/Users/chase/Desktop/NKI/Task_TaxonomyAuditoryMemory/logs/chase50coh_0.5oct_3sWMdelay,2023-07-25_12h12.40.252,2022.1.4,
400,0.5,420,0.5,14,0,8,8,0,14,1,14,0,8,214.64194084700284,220.9410320850002,220.9410320850002,220.93819805800013,same,chase50coh_0.5oct_3sWMdelay,None,debugging_monitor,mouse,None,"[800, 800]",32,False,255,44100,None,DFF8,NaN,/Users/chase/Desktop/NKI/Task_TaxonomyAuditoryMemory/logs/chase50coh_0.5oct_3sWMdelay,2023-07-25_12h12.40.252,2022.1.4,
400,0.5,400,0.5,15,1,8,8,1,15,0,15,1,8,228.8240198709973,235.7077249560025,235.7077249560025,235.70483161399898,same,chase50coh_0.5oct_3sWMdelay,None,debugging_monitor,mouse,None,"[800, 800]",32,False,255,44100,None,DFF8,NaN,/Users/chase/Desktop/NKI/Task_TaxonomyAuditoryMemory/logs/chase50coh_0.5oct_3sWMdelay,2023-07-25_12h12.40.252,2022.1.4,
400,0.5,400,0.5,16,0,9,9,0,16,0,16,0,9,242.00844796899764,247.4752554719962,247.4752554719962,247.47146747400257,same,chase50coh_0.5oct_3sWMdelay,None,debugging_monitor,mouse,None,"[800, 800]",32,False,255,44100,None,DFF8,NaN,/Users/chase/Desktop/NKI/Task_TaxonomyAuditoryMemory/logs/chase50coh_0.5oct_3sWMdelay,2023-07-25_12h12.40.252,2022.1.4,
400,0.5,420,0.5,17,1,9,9,1,17,1,17,1,9,254.77131930299947,260.75743983400025,260.75743983400025,260.7545138179994,diff,chase50coh_0.5oct_3sWMdelay,None,debugging_monitor,mouse,None,"[800, 800]",32,False,255,44100,None,DFF8,NaN,/Users/chase/Desktop/NKI/Task_TaxonomyAuditoryMemory/logs/chase50coh_0.5oct_3sWMdelay,2023-07-25_12h12.40.252,2022.1.4,
400,0.5,400,0.5,18,0,10,10,0,18,0,18,0,10,266.80802224200306,272.1906849599982,272.1906849599982,272.18783060400165,same,chase50coh_0.5oct_3sWMdelay,None,debugging_monitor,mouse,None,"[800, 800]",32,False,255,44100,None,DFF8,NaN,/Users/chase/Desktop/NKI/Task_TaxonomyAuditoryMemory/logs/chase50coh_0.5oct_3sWMdelay,2023-07-25_12h12.40.252,2022.1.4,
400,0.5,420,0.5,19,1,10,10,1,19,1,19,1,10,278.77456781599903,283.92097210400243,283.92097210400243,283.9081724229982,diff,chase50coh_0.5oct_3sWMdelay,None,debugging_monitor,mouse,None,"[800, 800]",32,False,255,44100,None,DFF8,NaN,/Users/chase/Desktop/NKI/Task_TaxonomyAuditoryMemory/logs/chase50coh_0.5oct_3sWMdelay,2023-07-25_12h12.40.252,2022.1.4,
400,0.5,400,0.5,20,0,11,11,0,20,0,20,0,11,291.32552971100085,296.80712373900315,296.80712373900315,296.8040939209968,same,chase50coh_0.5oct_3sWMdelay,None,debugging_monitor,mouse,None,"[800, 800]",32,False,255,44100,None,DFF8,NaN,/Users/chase/Desktop/NKI/Task_TaxonomyAuditoryMemory/logs/chase50coh_0.5oct_3sWMdelay,2023-07-25_12h12.40.252,2022.1.4,
400,0.5,420,0.5,21,1,11,11,1,21,1,21,1,11,303.8074251229991,309.1708453050014,309.1708453050014,309.15792987799796,diff,chase50coh_0.5oct_3sWMdelay,None,debugging_monitor,mouse,None,"[800, 800]",32,False,255,44100,None,DFF8,NaN,/Users/chase/Desktop/NKI/Task_TaxonomyAuditoryMemory/logs/chase50coh_0.5oct_3sWMdelay,2023-07-25_12h12.40.252,2022.1.4,
400,0.5,420,0.5,22,0,12,12,0,22,1,22,0,12,315.8753393060033,321.1872395669998,321.1872395669998,321.1746373920032,same,chase50coh_0.5oct_3sWMdelay,None,debugging_monitor,mouse,None,"[800, 800]",32,False,255,44100,None,DFF8,NaN,/Users/chase/Desktop/NKI/Task_TaxonomyAuditoryMemory/logs/chase50coh_0.5oct_3sWMdelay,2023-07-25_12h12.40.252,2022.1.4,
400,0.5,400,0.5,23,1,12,12,1,23,0,23,1,12,328.8395722159985,333.95695126899955,333.95695126899955,333.95391873399785,same,chase50coh_0.5oct_3sWMdelay,None,debugging_monitor,mouse,None,"[800, 800]",32,False,255,44100,None,DFF8,NaN,/Users/chase/Desktop/NKI/Task_TaxonomyAuditoryMemory/logs/chase50coh_0.5oct_3sWMdelay,2023-07-25_12h12.40.252,2022.1.4,
400,0.5,420,0.5,24,0,13,13,0,24,1,24,0,13,340.8242664930003,345.9870644609982,345.9870644609982,345.9745935940009,diff,chase50coh_0.5oct_3sWMdelay,None,debugging_monitor,mouse,None,"[800, 800]",32,False,255,44100,None,DFF8,NaN,/Users/chase/Desktop/NKI/Task_TaxonomyAuditoryMemory/logs/chase50coh_0.5oct_3sWMdelay,2023-07-25_12h12.40.252,2022.1.4,
400,0.5,400,0.5,25,1,13,13,1,25,0,25,1,13,352.9749022460019,358.20663010000135,358.20663010000135,358.2036837150008,same,chase50coh_0.5oct_3sWMdelay,None,debugging_monitor,mouse,None,"[800, 800]",32,False,255,44100,None,DFF8,NaN,/Users/chase/Desktop/NKI/Task_TaxonomyAuditoryMemory/logs/chase50coh_0.5oct_3sWMdelay,2023-07-25_12h12.40.252,2022.1.4,
400,0.5,420,0.5,26,0,14,14,0,26,1,26,0,14,365.857558538999,370.95649004499865,370.95649004499865,370.9534690369983,diff,chase50coh_0.5oct_3sWMdelay,None,debugging_monitor,mouse,None,"[800, 800]",32,False,255,44100,None,DFF8,NaN,/Users/chase/Desktop/NKI/Task_TaxonomyAuditoryMemory/logs/chase50coh_0.5oct_3sWMdelay,2023-07-25_12h12.40.252,2022.1.4,
400,0.5,400,0.5,27,1,14,14,1,27,0,27,1,14,378.52409528499993,384.8236726909963,384.8236726909963,384.8201327830029,same,chase50coh_0.5oct_3sWMdelay,None,debugging_monitor,mouse,None,"[800, 800]",32,False,255,44100,None,DFF8,NaN,/Users/chase/Desktop/NKI/Task_TaxonomyAuditoryMemory/logs/chase50coh_0.5oct_3sWMdelay,2023-07-25_12h12.40.252,2022.1.4,
400,0.5,420,0.5,28,0,15,15,0,28,1,28,0,15,391.9743701519983,399.6062836199999,399.6062836199999,399.6032761789975,diff,chase50coh_0.5oct_3sWMdelay,None,debugging_monitor,mouse,None,"[800, 800]",32,False,255,44100,None,DFF8,NaN,/Users/chase/Desktop/NKI/Task_TaxonomyAuditoryMemory/logs/chase50coh_0.5oct_3sWMdelay,2023-07-25_12h12.40.252,2022.1.4,
400,0.5,400,0.5,29,1,15,15,1,29,0,29,1,15,406.1553218370027,412.2031106470022,412.2031106470022,412.19009980600094,same,chase50coh_0.5oct_3sWMdelay,None,debugging_monitor,mouse,None,"[800, 800]",32,False,255,44100,None,DFF8,NaN,/Users/chase/Desktop/NKI/Task_TaxonomyAuditoryMemory/logs/chase50coh_0.5oct_3sWMdelay,2023-07-25_12h12.40.252,2022.1.4,
